// General information: 
//  MT Manager version: 2022.0.0 
//  XDA version: 2022.0.0 build 7085 rev 119802 built on 2022-11-08
// Device information: 
//  DeviceId: 077002EC
//  ProductCode: MTi-G-700-2A5G4
//  Firmware Version: 1.4.1
//  Hardware Version: 2.0.0
// Device settings: 
//  Filter Profile: GeneralMag(3.19)
//  Option Flags: Orientation Smoother Disabled, Position/Velocity Smoother Disabled, Continuous Zero Rotation Update Disabled, AHS Disabled, ICC Disabled
//  GNSS Platform: Portable
// Coordinate system: ENU
PacketCounter,Year,Month,Day,Second,UTC_Nano,UTC_Year,UTC_Month,UTC_Day,UTC_Hour,UTC_Minute,UTC_Second,UTC_Valid,Acc_X,Acc_Y,Acc_Z,Gyr_X,Gyr_Y,Gyr_Z,Latitude,Longitude,Altitude,Vel_E,Vel_N,Vel_U
26066,2024,02,28,50236.2380,238800000,2024,2,28,13,57,16,7,0.124808,-0.009749,9.909399,-0.009833,0.003728,0.002754,0,0,0,0,0,0
26067,2024,02,28,50236.2480,248800000,2024,2,28,13,57,16,7,0.120925,-0.016844,9.915167,-0.009546,0.002068,0.000862,0,0,0,0,0,0
26068,2024,02,28,50236.2580,258800000,2024,2,28,13,57,16,7,0.126432,-0.003700,9.903374,-0.010854,0.000269,0.001379,0,0,0,0,0,0
26069,2024,02,28,50236.2680,268800000,2024,2,28,13,57,16,7,0.122787,-0.008075,9.909729,-0.009482,0.000904,0.001949,0,0,0,0,0,0
26070,2024,02,28,50236.2780,278800000,2024,2,28,13,57,16,7,0.109358,-0.004511,9.917014,-0.009437,0.002271,0.000875,0,0,0,0,0,0
26071,2024,02,28,50236.2880,288800000,2024,2,28,13,57,16,7,0.107763,-0.013109,9.921744,-0.007778,0.003806,0.002403,0,0,0,0,0,0
26072,2024,02,28,50236.2980,298800000,2024,2,28,13,57,16,7,0.120364,-0.019367,9.905551,-0.007728,0.001210,0.001753,0,0,0,0,0,0
26073,2024,02,28,50236.3080,308800000,2024,2,28,13,57,16,7,0.113853,-0.010596,9.908777,-0.008097,0.003759,0.002840,8.998664819,38.731210534,0,0,0,0
26074,2024,02,28,50236.3180,318800000,2024,2,28,13,57,16,7,0.129577,-0.007862,9.923706,-0.008454,0.005644,0.001984,0,0,0,0,0,0
26075,2024,02,28,50236.3280,328800000,2024,2,28,13,57,16,7,0.123153,-0.010469,9.907249,-0.007797,0.005377,0.001141,0,0,0,0,0,0
26076,2024,02,28,50236.3380,338800000,2024,2,28,13,57,16,7,0.118923,-0.004172,9.920588,-0.008568,0.005081,0.002129,0,0,0,0,0,0
26077,2024,02,28,50236.3480,348800000,2024,2,28,13,57,16,7,0.119853,0.007676,9.928891,-0.008459,0.003129,-0.001208,0,0,0,0,0,0
26078,2024,02,28,50236.3580,358800000,2024,2,28,13,57,16,7,0.123895,-0.015731,9.921965,-0.009716,0.002432,0.001140,0,0,0,0,0,0
26079,2024,02,28,50236.3680,368800000,2024,2,28,13,57,16,7,0.119732,0.004694,9.905166,-0.009576,0.002399,0.003151,0,0,0,0,0,0
26080,2024,02,28,50236.3780,378800000,2024,2,28,13,57,16,7,0.133223,-0.015925,9.914743,-0.007481,0.004439,0.000963,0,0,0,0,0,0
26081,2024,02,28,50236.3880,388800000,2024,2,28,13,57,16,7,0.121785,-0.000623,9.922761,-0.009126,0.005473,0.001003,0,0,0,0,0,0
26082,2024,02,28,50236.3980,398800000,2024,2,28,13,57,16,7,0.117449,-0.004312,9.903129,-0.009630,0.004618,0.000546,0,0,0,0,0,0
26083,2024,02,28,50236.4080,408800000,2024,2,28,13,57,16,7,0.118379,-0.008853,9.927108,-0.007967,0.003105,-0.000883,0,0,0,0,0,0
26084,2024,02,28,50236.4180,418800000,2024,2,28,13,57,16,7,0.124908,-0.004143,9.891245,-0.012241,0.000148,0.002679,0,0,0,0,0,0
26085,2024,02,28,50236.4280,428800000,2024,2,28,13,57,16,7,0.120059,-0.011607,9.907554,-0.007229,0.003592,0.003820,0,0,0,0,0,0
26086,2024,02,28,50236.4380,438800000,2024,2,28,13,57,16,7,0.116031,0.007292,9.915792,-0.009020,0.006985,0.001340,0,0,0,0,0,0
26087,2024,02,28,50236.4480,448800000,2024,2,28,13,57,16,7,0.129147,-0.001371,9.916568,-0.009936,0.001084,0.002328,0,0,0,0,0,0
26088,2024,02,28,50236.4580,458800000,2024,2,28,13,57,16,7,0.132932,-0.020787,9.913556,-0.009562,0.002297,0.001181,0,0,0,0,0,0
26089,2024,02,28,50236.4680,468800000,2024,2,28,13,57,16,7,0.138332,-0.010696,9.903778,-0.011441,0.003169,-0.000069,0,0,0,0,0,0
26090,2024,02,28,50236.4780,478800000,2024,2,28,13,57,16,7,0.118966,-0.008888,9.911810,-0.008235,0.002518,0.002624,0,0,0,0,0,0
26091,2024,02,28,50236.4880,488800000,2024,2,28,13,57,16,7,0.130505,-0.015951,9.912926,-0.009528,0.000731,0.001753,0,0,0,0,0,0
26092,2024,02,28,50236.4980,498800000,2024,2,28,13,57,16,7,0.121716,-0.009944,9.909359,-0.010927,0.002712,0.003160,0,0,0,0,0,0
26093,2024,02,28,50236.5080,508800000,2024,2,28,13,57,16,7,0.129106,-0.028079,9.908763,-0.010078,0.002440,0.004423,8.998664882,38.731210537,0,0,0,0
26094,2024,02,28,50236.5180,518800000,2024,2,28,13,57,16,7,0.129686,-0.007206,9.908163,-0.009073,0.001829,0.002772,0,0,0,0,0,0
26095,2024,02,28,50236.5280,528800000,2024,2,28,13,57,16,7,0.122178,-0.002340,9.896549,-0.009205,0.004721,0.000923,0,0,0,0,0,0
26096,2024,02,28,50236.5380,538800000,2024,2,28,13,57,16,7,0.114030,-0.007162,9.916607,-0.010316,0.003562,0.001795,0,0,0,0,0,0
26097,2024,02,28,50236.5480,548800000,2024,2,28,13,57,16,7,0.129700,-0.005661,9.912547,-0.011167,0.003080,0.002708,0,0,0,0,0,0
26098,2024,02,28,50236.5580,558800000,2024,2,28,13,57,16,7,0.107206,-0.001968,9.917459,-0.009366,0.001656,0.001461,0,0,0,0,0,0
26099,2024,02,28,50236.5680,568800000,2024,2,28,13,57,16,7,0.128792,-0.008299,9.894619,-0.009943,0.003139,0.000503,0,0,0,0,0,0
26100,2024,02,28,50236.5780,578800000,2024,2,28,13,57,16,7,0.122688,0.002062,9.912802,-0.008040,0.003254,0.003302,0,0,0,0,0,0
26101,2024,02,28,50236.5880,588800000,2024,2,28,13,57,16,7,0.119746,-0.004118,9.905892,-0.007361,0.006183,0.002341,0,0,0,0,0,0
26102,2024,02,28,50236.5980,598800000,2024,2,28,13,57,16,7,0.114211,-0.012840,9.906767,-0.009113,0.003618,0.000153,0,0,0,0,0,0
26103,2024,02,28,50236.6080,608800000,2024,2,28,13,57,16,7,0.102802,-0.002512,9.929255,-0.010608,0.001298,0.003871,0,0,0,0,0,0
26104,2024,02,28,50236.6180,618800000,2024,2,28,13,57,16,7,0.107200,-0.003422,9.912479,-0.009951,0.000129,0.002163,0,0,0,0,0,0
26105,2024,02,28,50236.6280,628800000,2024,2,28,13,57,16,7,0.117680,-0.009570,9.913931,-0.007879,0.003240,0.002834,0,0,0,0,0,0
26106,2024,02,28,50236.6380,638800000,2024,2,28,13,57,16,7,0.126809,-0.003850,9.912746,-0.010112,0.004143,0.003973,0,0,0,0,0,0
26107,2024,02,28,50236.6480,648800000,2024,2,28,13,57,16,7,0.122479,-0.002026,9.913873,-0.006709,0.002788,0.003535,0,0,0,0,0,0
26108,2024,02,28,50236.6580,658800000,2024,2,28,13,57,16,7,0.118558,-0.004798,9.911683,-0.009550,0.002736,0.000083,0,0,0,0,0,0
26109,2024,02,28,50236.6680,668800000,2024,2,28,13,57,16,7,0.132369,-0.010502,9.920894,-0.008073,0.004127,0.001270,0,0,0,0,0,0
26110,2024,02,28,50236.6780,678800000,2024,2,28,13,57,16,7,0.118471,-0.013122,9.922845,-0.008099,0.002995,0.001824,0,0,0,0,0,0
26111,2024,02,28,50236.6880,688800000,2024,2,28,13,57,16,7,0.115048,-0.011020,9.904523,-0.009045,0.004316,0.003002,0,0,0,0,0,0
26112,2024,02,28,50236.6980,698800000,2024,2,28,13,57,16,7,0.107023,-0.001711,9.924574,-0.010307,0.004437,0.003547,0,0,0,0,0,0
26113,2024,02,28,50236.7080,708800000,2024,2,28,13,57,16,7,0.121980,-0.008020,9.909245,-0.007803,0.002024,0.001673,8.998664944,38.731210545,0,0,0,0
26114,2024,02,28,50236.7180,718800000,2024,2,28,13,57,16,7,0.113921,-0.002519,9.915534,-0.009145,0.005095,0.002401,0,0,0,0,0,0
26115,2024,02,28,50236.7280,728800000,2024,2,28,13,57,16,7,0.122595,-0.015688,9.902976,-0.007815,0.005263,0.001556,0,0,0,0,0,0
26116,2024,02,28,50236.7380,738800000,2024,2,28,13,57,16,7,0.109426,0.005541,9.898736,-0.007993,0.004723,0.001043,0,0,0,0,0,0
26117,2024,02,28,50236.7480,748800000,2024,2,28,13,57,16,7,0.125197,-0.017950,9.909293,-0.006407,0.002423,0.002884,0,0,0,0,0,0
26118,2024,02,28,50236.7580,758800000,2024,2,28,13,57,16,7,0.132371,-0.019034,9.920545,-0.011693,0.001201,0.002395,0,0,0,0,0,0
26119,2024,02,28,50236.7680,768800000,2024,2,28,13,57,16,7,0.138452,-0.014049,9.926202,-0.009816,0.004575,0.000615,0,0,0,0,0,0
26120,2024,02,28,50236.7780,778800000,2024,2,28,13,57,16,7,0.109696,0.000918,9.917607,-0.008435,0.004549,0.001623,0,0,0,0,0,0
26121,2024,02,28,50236.7880,788800000,2024,2,28,13,57,16,7,0.108711,-0.013322,9.902302,-0.008984,0.002768,0.002063,0,0,0,0,0,0
26122,2024,02,28,50236.7980,798800000,2024,2,28,13,57,16,7,0.109755,-0.013674,9.922607,-0.010657,0.006468,0.002831,0,0,0,0,0,0
26123,2024,02,28,50236.8080,808800000,2024,2,28,13,57,16,7,0.119589,0.002574,9.907779,-0.008972,0.000870,0.000843,0,0,0,0,0,0
26124,2024,02,28,50236.8180,818800000,2024,2,28,13,57,16,7,0.116657,-0.000017,9.910236,-0.011242,0.002752,0.000416,0,0,0,0,0,0
26125,2024,02,28,50236.8280,828800000,2024,2,28,13,57,16,7,0.118527,0.003405,9.909184,-0.007169,0.001934,0.003061,0,0,0,0,0,0
26126,2024,02,28,50236.8380,838800000,2024,2,28,13,57,16,7,0.126063,-0.008416,9.896968,-0.007006,0.004902,0.004704,0,0,0,0,0,0
26127,2024,02,28,50236.8480,848800000,2024,2,28,13,57,16,7,0.123885,-0.008098,9.914136,-0.008113,0.004973,0.001964,0,0,0,0,0,0
26128,2024,02,28,50236.8580,858700000,2024,2,28,13,57,16,7,0.131942,-0.012730,9.923851,-0.010196,0.002395,-0.002437,0,0,0,0,0,0
26129,2024,02,28,50236.8680,868700000,2024,2,28,13,57,16,7,0.122734,-0.000095,9.913282,-0.008225,0.003943,0.002065,0,0,0,0,0,0
26130,2024,02,28,50236.8780,878700000,2024,2,28,13,57,16,7,0.128280,-0.015753,9.905302,-0.009757,0.005256,0.000641,0,0,0,0,0,0
26131,2024,02,28,50236.8880,888700000,2024,2,28,13,57,16,7,0.105103,0.005250,9.904849,-0.008118,0.003781,0.000958,0,0,0,0,0,0
26132,2024,02,28,50236.8980,898700000,2024,2,28,13,57,16,7,0.111399,-0.004242,9.919178,-0.009367,0.004383,0.002797,0,0,0,0,0,0
26133,2024,02,28,50236.9080,908700000,2024,2,28,13,57,16,7,0.125082,-0.015297,9.900989,-0.008236,0.002303,0.001581,8.998665004,38.731210571,0,0,0,0
26134,2024,02,28,50236.9180,918700000,2024,2,28,13,57,16,7,0.112747,-0.019190,9.916249,-0.009671,0.005846,0.004503,0,0,0,0,0,0
26135,2024,02,28,50236.9280,928700000,2024,2,28,13,57,16,7,0.127328,-0.004534,9.910976,-0.010807,0.002497,0.000229,0,0,0,0,0,0
26136,2024,02,28,50236.9380,938700000,2024,2,28,13,57,16,7,0.125009,-0.009575,9.915926,-0.010087,0.001661,0.000812,0,0,0,0,0,0
26137,2024,02,28,50236.9480,948700000,2024,2,28,13,57,16,7,0.123847,-0.007908,9.908316,-0.005754,0.001144,0.002736,0,0,0,0,0,0
26138,2024,02,28,50236.9580,958700000,2024,2,28,13,57,16,7,0.125876,-0.011062,9.919976,-0.008971,0.004291,-0.001070,0,0,0,0,0,0
26139,2024,02,28,50236.9680,968700000,2024,2,28,13,57,16,7,0.121838,0.005204,9.902594,-0.011520,0.006418,0.002382,0,0,0,0,0,0
26140,2024,02,28,50236.9780,978700000,2024,2,28,13,57,16,7,0.107652,-0.002346,9.906201,-0.008330,0.002308,0.003872,0,0,0,0,0,0
26141,2024,02,28,50236.9880,988700000,2024,2,28,13,57,16,7,0.115127,-0.006422,9.902027,-0.008900,0.001511,0.003600,0,0,0,0,0,0
26142,2024,02,28,50236.9980,998700000,2024,2,28,13,57,16,7,0.106285,-0.006708,9.917929,-0.007516,0.002301,0.002293,0,0,0,0,0,0
26143,2024,02,28,50237.0080,8700000,2024,2,28,13,57,17,7,0.123233,-0.015533,9.907840,-0.008905,0.002180,0.003954,0,0,0,0,0,0
26144,2024,02,28,50237.0180,18700000,2024,2,28,13,57,17,7,0.128144,-0.015623,9.924752,-0.009314,0.003510,0.001043,0,0,0,0,0,0
26145,2024,02,28,50237.0280,28700000,2024,2,28,13,57,17,7,0.133405,-0.008756,9.907623,-0.008381,0.004781,0.002044,0,0,0,0,0,0
26146,2024,02,28,50237.0380,38700000,2024,2,28,13,57,17,7,0.124059,-0.002338,9.897168,-0.005994,0.003834,0.003260,0,0,0,0,0,0
26147,2024,02,28,50237.0480,48700000,2024,2,28,13,57,17,7,0.114479,-0.005777,9.912931,-0.008814,0.001947,0.002085,0,0,0,0,0,0
26148,2024,02,28,50237.0580,58700000,2024,2,28,13,57,17,7,0.133079,-0.024850,9.910479,-0.007853,0.003997,0.001894,0,0,0,0,0,0
26149,2024,02,28,50237.0680,68700000,2024,2,28,13,57,17,7,0.120451,-0.002312,9.928921,-0.007371,0.003764,0.002000,0,0,0,0,0,0
26150,2024,02,28,50237.0780,78700000,2024,2,28,13,57,17,7,0.117209,-0.009716,9.915582,-0.009962,0.001422,0.001952,0,0,0,0,0,0
26151,2024,02,28,50237.0880,88700000,2024,2,28,13,57,17,7,0.129405,-0.010126,9.902935,-0.010266,0.002381,0.002365,0,0,0,0,0,0
26152,2024,02,28,50237.0980,98700000,2024,2,28,13,57,17,7,0.113240,-0.010638,9.923358,-0.007579,0.003200,0.000245,0,0,0,0,0,0
26153,2024,02,28,50237.1080,108700000,2024,2,28,13,57,17,7,0.124368,-0.013154,9.904532,-0.008914,0.000336,0.001099,8.998665007,38.731210564,0,0,0,0
26154,2024,02,28,50237.1180,118700000,2024,2,28,13,57,17,7,0.138121,-0.020918,9.909710,-0.008483,0.002453,0.002656,0,0,0,0,0,0
26155,2024,02,28,50237.1280,128700000,2024,2,28,13,57,17,7,0.130698,-0.006854,9.918852,-0.010577,0.002051,0.001527,0,0,0,0,0,0
26156,2024,02,28,50237.1380,138700000,2024,2,28,13,57,17,7,0.120488,-0.004813,9.912305,-0.006337,0.003355,0.001284,0,0,0,0,0,0
26157,2024,02,28,50237.1480,148700000,2024,2,28,13,57,17,7,0.125776,-0.014476,9.905270,-0.006923,0.002092,0.002029,0,0,0,0,0,0
26158,2024,02,28,50237.1580,158700000,2024,2,28,13,57,17,7,0.126614,-0.004238,9.918793,-0.009202,0.001322,0.000747,0,0,0,0,0,0
26159,2024,02,28,50237.1680,168700000,2024,2,28,13,57,17,7,0.123756,-0.002555,9.889216,-0.006337,0.003226,0.002362,0,0,0,0,0,0
26160,2024,02,28,50237.1780,178700000,2024,2,28,13,57,17,7,0.117604,-0.017683,9.911919,-0.008627,0.001449,0.000698,0,0,0,0,0,0
26161,2024,02,28,50237.1880,188700000,2024,2,28,13,57,17,7,0.113698,-0.015707,9.900837,-0.007008,0.005001,0.001570,0,0,0,0,0,0
26162,2024,02,28,50237.1980,198700000,2024,2,28,13,57,17,7,0.104043,-0.000499,9.911723,-0.010198,0.002789,-0.000073,0,0,0,0,0,0
26163,2024,02,28,50237.2080,208700000,2024,2,28,13,57,17,7,0.107285,-0.004410,9.920428,-0.007818,0.002544,0.002886,0,0,0,0,0,0
26164,2024,02,28,50237.2180,218700000,2024,2,28,13,57,17,7,0.111469,-0.004471,9.905182,-0.009146,0.004668,0.000238,0,0,0,0,0,0
26165,2024,02,28,50237.2280,228700000,2024,2,28,13,57,17,7,0.110575,0.010190,9.902785,-0.009276,0.005273,0.000669,0,0,0,0,0,0
26166,2024,02,28,50237.2380,238700000,2024,2,28,13,57,17,7,0.123034,-0.005482,9.920523,-0.006955,0.003156,0.002161,0,0,0,0,0,0
26167,2024,02,28,50237.2480,248700000,2024,2,28,13,57,17,7,0.119873,-0.009966,9.903753,-0.010680,0.001845,0.002184,0,0,0,0,0,0
26168,2024,02,28,50237.2580,258700000,2024,2,28,13,57,17,7,0.136048,-0.008190,9.919874,-0.008245,0.001163,0.003336,0,0,0,0,0,0
26169,2024,02,28,50237.2680,268700000,2024,2,28,13,57,17,7,0.139167,-0.017543,9.911855,-0.010398,0.003484,0.000736,0,0,0,0,0,0
26170,2024,02,28,50237.2780,278700000,2024,2,28,13,57,17,7,0.132576,-0.005463,9.912114,-0.008712,0.001006,0.001436,0,0,0,0,0,0
26171,2024,02,28,50237.2880,288700000,2024,2,28,13,57,17,7,0.130390,-0.012522,9.905448,-0.009346,0.002430,0.003330,0,0,0,0,0,0
26172,2024,02,28,50237.2980,298700000,2024,2,28,13,57,17,7,0.126552,-0.024328,9.925212,-0.008327,0.000135,0.000256,0,0,0,0,0,0
26173,2024,02,28,50237.3080,308700000,2024,2,28,13,57,17,7,0.113127,-0.010828,9.923723,-0.009391,0.003476,0.002119,8.998664799,38.731210555,0,0,0,0
26174,2024,02,28,50237.3180,318700000,2024,2,28,13,57,17,7,0.119027,-0.007646,9.910510,-0.009716,0.000991,0.004261,0,0,0,0,0,0
26175,2024,02,28,50237.3280,328700000,2024,2,28,13,57,17,7,0.113667,-0.011304,9.915420,-0.009192,0.005610,0.004644,0,0,0,0,0,0
26176,2024,02,28,50237.3380,338700000,2024,2,28,13,57,17,7,0.119715,0.015457,9.912750,-0.010784,0.000278,0.005220,0,0,0,0,0,0
26177,2024,02,28,50237.3480,348700000,2024,2,28,13,57,17,7,0.125570,0.002462,9.897304,-0.010019,0.006066,0.000447,0,0,0,0,0,0
26178,2024,02,28,50237.3580,358700000,2024,2,28,13,57,17,7,0.118878,-0.006070,9.921421,-0.008633,0.003962,-0.000850,0,0,0,0,0,0
26179,2024,02,28,50237.3680,368700000,2024,2,28,13,57,17,7,0.116100,-0.011699,9.931581,-0.008985,0.002057,0.002004,0,0,0,0,0,0
26180,2024,02,28,50237.3780,378700000,2024,2,28,13,57,17,7,0.115816,0.001883,9.912000,-0.010250,0.001740,-0.000734,0,0,0,0,0,0
26181,2024,02,28,50237.3880,388700000,2024,2,28,13,57,17,7,0.129525,-0.008051,9.917295,-0.010866,0.004387,0.001150,0,0,0,0,0,0
26182,2024,02,28,50237.3980,398700000,2024,2,28,13,57,17,7,0.116834,-0.023540,9.910729,-0.010255,0.003238,0.006132,0,0,0,0,0,0
26183,2024,02,28,50237.4080,408700000,2024,2,28,13,57,17,7,0.124221,-0.008851,9.909154,-0.010543,-0.000186,0.001325,0,0,0,0,0,0
26184,2024,02,28,50237.4180,418700000,2024,2,28,13,57,17,7,0.106314,-0.012155,9.916742,-0.011813,0.000552,0.000919,0,0,0,0,0,0
26185,2024,02,28,50237.4280,428700000,2024,2,28,13,57,17,7,0.134572,-0.016234,9.938126,-0.009438,0.004228,0.000307,0,0,0,0,0,0
26186,2024,02,28,50237.4380,438700000,2024,2,28,13,57,17,7,0.136394,-0.003565,9.903266,-0.008859,0.001702,0.000235,0,0,0,0,0,0
26187,2024,02,28,50237.4480,448700000,2024,2,28,13,57,17,7,0.127733,-0.003089,9.902556,-0.006470,0.002156,0.001268,0,0,0,0,0,0
26188,2024,02,28,50237.4580,458700000,2024,2,28,13,57,17,7,0.124182,-0.008634,9.903096,-0.010139,0.002316,0.000890,0,0,0,0,0,0
26189,2024,02,28,50237.4680,468700000,2024,2,28,13,57,17,7,0.118028,-0.004968,9.935045,-0.007284,0.001296,0.002042,0,0,0,0,0,0
26190,2024,02,28,50237.4780,478700000,2024,2,28,13,57,17,7,0.118087,-0.011620,9.894963,-0.009505,0.003628,0.002014,0,0,0,0,0,0
26191,2024,02,28,50237.4880,488700000,2024,2,28,13,57,17,7,0.109761,-0.020176,9.933170,-0.008751,0.003471,-0.000685,0,0,0,0,0,0
26192,2024,02,28,50237.4980,498700000,2024,2,28,13,57,17,7,0.127121,-0.018478,9.912050,-0.007812,0.005407,-0.000265,0,0,0,0,0,0
26193,2024,02,28,50237.5080,508700000,2024,2,28,13,57,17,7,0.103458,0.005487,9.901622,-0.010695,0.003111,-0.000209,8.998664677,38.731210571,0,0,0,0
26194,2024,02,28,50237.5180,518700000,2024,2,28,13,57,17,7,0.123665,-0.003428,9.916854,-0.009655,0.004511,0.001961,0,0,0,0,0,0
26195,2024,02,28,50237.5280,528700000,2024,2,28,13,57,17,7,0.120084,-0.019427,9.909110,-0.007619,0.002747,0.000675,0,0,0,0,0,0
26196,2024,02,28,50237.5380,538700000,2024,2,28,13,57,17,7,0.124403,0.004414,9.910212,-0.009685,0.002483,-0.000488,0,0,0,0,0,0
26197,2024,02,28,50237.5480,548700000,2024,2,28,13,57,17,7,0.117853,-0.015872,9.937550,-0.006745,0.003768,0.001287,0,0,0,0,0,0
26198,2024,02,28,50237.5580,558700000,2024,2,28,13,57,17,7,0.120300,-0.003581,9.918115,-0.007473,0.004585,0.002297,0,0,0,0,0,0
26199,2024,02,28,50237.5680,568700000,2024,2,28,13,57,17,7,0.112808,0.006923,9.907448,-0.010267,0.002797,0.001369,0,0,0,0,0,0
26200,2024,02,28,50237.5780,578700000,2024,2,28,13,57,17,7,0.114376,0.007615,9.899989,-0.009304,0.002675,0.002303,0,0,0,0,0,0
26201,2024,02,28,50237.5880,588700000,2024,2,28,13,57,17,7,0.128886,-0.000194,9.918586,-0.007304,0.002783,0.002452,0,0,0,0,0,0
26202,2024,02,28,50237.5980,598700000,2024,2,28,13,57,17,7,0.116423,0.006969,9.919472,-0.005625,0.004086,0.004431,0,0,0,0,0,0
26203,2024,02,28,50237.6080,608700000,2024,2,28,13,57,17,7,0.121460,-0.015850,9.905092,-0.009824,0.001535,0.001550,0,0,0,0,0,0
26204,2024,02,28,50237.6180,618700000,2024,2,28,13,57,17,7,0.115160,-0.006111,9.916620,-0.010746,0.000867,0.002119,0,0,0,0,0,0
26205,2024,02,28,50237.6280,628700000,2024,2,28,13,57,17,7,0.114506,-0.005205,9.916142,-0.007824,0.002026,0.002894,0,0,0,0,0,0
26206,2024,02,28,50237.6380,638700000,2024,2,28,13,57,17,7,0.117475,-0.007022,9.924009,-0.009470,0.005113,0.001083,0,0,0,0,0,0
26207,2024,02,28,50237.6480,648700000,2024,2,28,13,57,17,7,0.106287,0.006677,9.908301,-0.010131,0.000222,0.001498,0,0,0,0,0,0
26208,2024,02,28,50237.6580,658700000,2024,2,28,13,57,17,7,0.116066,0.005965,9.906780,-0.008963,0.002642,0.000991,0,0,0,0,0,0
26209,2024,02,28,50237.6680,668700000,2024,2,28,13,57,17,7,0.133858,-0.005586,9.904185,-0.007749,0.005813,0.002117,0,0,0,0,0,0
26210,2024,02,28,50237.6780,678700000,2024,2,28,13,57,17,7,0.136614,-0.016593,9.908266,-0.009660,0.001550,0.002095,0,0,0,0,0,0
26211,2024,02,28,50237.6880,688700000,2024,2,28,13,57,17,7,0.127232,-0.010154,9.917505,-0.006625,0.002676,0.001546,0,0,0,0,0,0
26212,2024,02,28,50237.6980,698700000,2024,2,28,13,57,17,7,0.110236,0.003186,9.900533,-0.009481,-0.000391,0.003777,0,0,0,0,0,0
26213,2024,02,28,50237.7080,708700000,2024,2,28,13,57,17,7,0.121645,-0.011068,9.906871,-0.009144,0.001523,0.004011,8.998664584,38.731210605,0,0,0,0
26214,2024,02,28,50237.7180,718700000,2024,2,28,13,57,17,7,0.110228,-0.005893,9.921061,-0.009708,0.005759,0.001187,0,0,0,0,0,0
26215,2024,02,28,50237.7280,728700000,2024,2,28,13,57,17,7,0.116811,0.000152,9.916875,-0.008994,0.001885,0.002291,0,0,0,0,0,0
26216,2024,02,28,50237.7380,738700000,2024,2,28,13,57,17,7,0.129670,0.005291,9.896522,-0.011350,0.004465,0.003244,0,0,0,0,0,0
26217,2024,02,28,50237.7480,748700000,2024,2,28,13,57,17,7,0.118304,0.001803,9.911908,-0.006933,0.003895,0.003516,0,0,0,0,0,0
26218,2024,02,28,50237.7580,758700000,2024,2,28,13,57,17,7,0.124376,-0.013734,9.911531,-0.006210,0.002448,0.001904,0,0,0,0,0,0
26219,2024,02,28,50237.7680,768700000,2024,2,28,13,57,17,7,0.131020,-0.008760,9.921350,-0.007793,0.004208,0.001881,0,0,0,0,0,0
26220,2024,02,28,50237.7780,778700000,2024,2,28,13,57,17,7,0.096835,0.000157,9.908770,-0.009766,0.002892,0.000851,0,0,0,0,0,0
26221,2024,02,28,50237.7880,788700000,2024,2,28,13,57,17,7,0.115641,0.004371,9.914604,-0.005408,0.002962,0.000961,0,0,0,0,0,0
26222,2024,02,28,50237.7980,798700000,2024,2,28,13,57,17,7,0.101335,-0.002939,9.911678,-0.008229,0.000583,-0.000369,0,0,0,0,0,0
26223,2024,02,28,50237.8080,808700000,2024,2,28,13,57,17,7,0.115828,-0.006054,9.919832,-0.008700,0.000719,0.004482,0,0,0,0,0,0
26224,2024,02,28,50237.8180,818700000,2024,2,28,13,57,17,7,0.132583,-0.006049,9.917455,-0.006422,0.002515,0.000269,0,0,0,0,0,0
26225,2024,02,28,50237.8280,828700000,2024,2,28,13,57,17,7,0.120038,-0.012379,9.909220,-0.007804,0.005335,0.001511,0,0,0,0,0,0
26226,2024,02,28,50237.8380,838700000,2024,2,28,13,57,17,7,0.117443,-0.004013,9.916771,-0.008775,0.002798,0.002346,0,0,0,0,0,0
26227,2024,02,28,50237.8480,848700000,2024,2,28,13,57,17,7,0.124941,-0.007789,9.913081,-0.009532,0.005473,0.001018,0,0,0,0,0,0
26228,2024,02,28,50237.8580,858700000,2024,2,28,13,57,17,7,0.108923,0.002594,9.914276,-0.008428,0.002411,0.001895,0,0,0,0,0,0
26229,2024,02,28,50237.8680,868700000,2024,2,28,13,57,17,7,0.119728,0.009861,9.915008,-0.006243,0.000811,0.001825,0,0,0,0,0,0
26230,2024,02,28,50237.8780,878700000,2024,2,28,13,57,17,7,0.114212,0.003480,9.902602,-0.009025,0.004944,0.000146,0,0,0,0,0,0
26231,2024,02,28,50237.8880,888700000,2024,2,28,13,57,17,7,0.124095,-0.007049,9.917459,-0.007926,0.002842,0.002485,0,0,0,0,0,0
26232,2024,02,28,50237.8980,898700000,2024,2,28,13,57,17,7,0.123499,-0.007598,9.924455,-0.009603,0.006440,0.002694,0,0,0,0,0,0
26233,2024,02,28,50237.9080,908700000,2024,2,28,13,57,17,7,0.124676,-0.024507,9.922101,-0.007591,0.002534,0.002955,8.998664541,38.731210667,0,0,0,0
26234,2024,02,28,50237.9180,918700000,2024,2,28,13,57,17,7,0.130208,-0.017558,9.912094,-0.007073,0.004151,0.001269,0,0,0,0,0,0
26235,2024,02,28,50237.9280,928700000,2024,2,28,13,57,17,7,0.116865,-0.012017,9.923766,-0.008791,0.000083,0.002102,0,0,0,0,0,0
26236,2024,02,28,50237.9380,938700000,2024,2,28,13,57,17,7,0.136034,-0.008277,9.903978,-0.009343,0.003998,0.000576,0,0,0,0,0,0
26237,2024,02,28,50237.9480,948700000,2024,2,28,13,57,17,7,0.120726,-0.011311,9.909464,-0.009687,0.002762,0.001977,0,0,0,0,0,0
26238,2024,02,28,50237.9580,958700000,2024,2,28,13,57,17,7,0.126951,-0.002771,9.921405,-0.007287,-0.000733,0.001060,0,0,0,0,0,0
26239,2024,02,28,50237.9680,968700000,2024,2,28,13,57,17,7,0.117541,-0.017226,9.915005,-0.006498,0.002082,0.001224,0,0,0,0,0,0
26240,2024,02,28,50237.9780,978700000,2024,2,28,13,57,17,7,0.114119,0.006299,9.904614,-0.006900,0.003772,0.001146,0,0,0,0,0,0
26241,2024,02,28,50237.9880,988700000,2024,2,28,13,57,17,7,0.108574,-0.006460,9.916893,-0.010087,0.003492,0.002921,0,0,0,0,0,0
26242,2024,02,28,50237.9980,998700000,2024,2,28,13,57,17,7,0.105170,0.008910,9.916710,-0.008059,0.004083,0.001053,0,0,0,0,0,0
26243,2024,02,28,50238.0080,8700000,2024,2,28,13,57,18,7,0.109259,-0.010869,9.907887,-0.007190,0.003523,0.000637,0,0,0,0,0,0
26244,2024,02,28,50238.0180,18700000,2024,2,28,13,57,18,7,0.131413,-0.005209,9.921822,-0.009696,0.003370,0.003764,0,0,0,0,0,0
26245,2024,02,28,50238.0280,28700000,2024,2,28,13,57,18,7,0.134179,-0.017773,9.920926,-0.008477,0.003114,0.000722,0,0,0,0,0,0
26246,2024,02,28,50238.0380,38700000,2024,2,28,13,57,18,7,0.141426,-0.013231,9.898722,-0.010773,0.001031,0.001713,0,0,0,0,0,0
26247,2024,02,28,50238.0480,48700000,2024,2,28,13,57,18,7,0.133991,-0.004861,9.899797,-0.008733,0.001898,0.002401,0,0,0,0,0,0
26248,2024,02,28,50238.0580,58700000,2024,2,28,13,57,18,7,0.128089,-0.002341,9.922373,-0.008443,0.004109,0.003055,0,0,0,0,0,0
26249,2024,02,28,50238.0680,68700000,2024,2,28,13,57,18,7,0.120837,-0.011157,9.903657,-0.008587,0.002778,0.002083,0,0,0,0,0,0
26250,2024,02,28,50238.0780,78700000,2024,2,28,13,57,18,7,0.108299,-0.004208,9.918185,-0.009744,0.002380,0.002790,0,0,0,0,0,0
26251,2024,02,28,50238.0880,88700000,2024,2,28,13,57,18,7,0.120053,-0.003243,9.912059,-0.007194,0.001197,0.003166,0,0,0,0,0,0
26252,2024,02,28,50238.0980,98700000,2024,2,28,13,57,18,7,0.123978,-0.010860,9.896226,-0.010389,0.003749,0.001065,0,0,0,0,0,0
26253,2024,02,28,50238.1080,108700000,2024,2,28,13,57,18,7,0.131931,-0.007505,9.893602,-0.009557,0.001389,0.001302,8.998664454,38.731210754,0,0,0,0
26254,2024,02,28,50238.1180,118700000,2024,2,28,13,57,18,7,0.115834,-0.006992,9.918295,-0.009016,0.001657,0.001778,0,0,0,0,0,0
26255,2024,02,28,50238.1280,128700000,2024,2,28,13,57,18,7,0.117435,0.002318,9.910595,-0.009653,0.000294,0.001698,0,0,0,0,0,0
26256,2024,02,28,50238.1380,138700000,2024,2,28,13,57,18,7,0.121542,-0.003560,9.915161,-0.010311,0.001331,0.002192,0,0,0,0,0,0
26257,2024,02,28,50238.1480,148700000,2024,2,28,13,57,18,7,0.126528,-0.010184,9.895902,-0.008642,0.003599,0.000017,0,0,0,0,0,0
26258,2024,02,28,50238.1580,158700000,2024,2,28,13,57,18,7,0.120626,-0.001245,9.920135,-0.010405,0.000301,0.000047,0,0,0,0,0,0
26259,2024,02,28,50238.1680,168700000,2024,2,28,13,57,18,7,0.114362,-0.005324,9.924798,-0.007652,0.002966,0.001529,0,0,0,0,0,0
26260,2024,02,28,50238.1780,178700000,2024,2,28,13,57,18,7,0.125777,-0.010304,9.908466,-0.009163,0.006833,0.000147,0,0,0,0,0,0
26261,2024,02,28,50238.1880,188700000,2024,2,28,13,57,18,7,0.120623,-0.000980,9.907203,-0.008117,0.002556,0.002768,0,0,0,0,0,0
26262,2024,02,28,50238.1980,198700000,2024,2,28,13,57,18,7,0.111924,0.004159,9.907316,-0.010974,0.002157,0.002887,0,0,0,0,0,0
26263,2024,02,28,50238.2080,208700000,2024,2,28,13,57,18,7,0.136234,-0.025409,9.909094,-0.005464,0.002427,0.002606,0,0,0,0,0,0
26264,2024,02,28,50238.2180,218700000,2024,2,28,13,57,18,7,0.107773,-0.006040,9.914860,-0.008844,0.002547,0.002473,0,0,0,0,0,0
26265,2024,02,28,50238.2280,228700000,2024,2,28,13,57,18,7,0.115628,-0.001152,9.905237,-0.007927,-0.000039,0.003506,0,0,0,0,0,0
26266,2024,02,28,50238.2380,238700000,2024,2,28,13,57,18,7,0.115493,-0.004010,9.913780,-0.009561,0.003689,0.000672,0,0,0,0,0,0
26267,2024,02,28,50238.2480,248700000,2024,2,28,13,57,18,7,0.124541,-0.003966,9.911172,-0.011338,0.001671,0.004484,0,0,0,0,0,0
26268,2024,02,28,50238.2580,258700000,2024,2,28,13,57,18,7,0.128135,-0.022977,9.911238,-0.007151,0.001575,0.002477,0,0,0,0,0,0
26269,2024,02,28,50238.2680,268700000,2024,2,28,13,57,18,7,0.114651,-0.014563,9.912231,-0.009117,0.003524,0.000001,0,0,0,0,0,0
26270,2024,02,28,50238.2780,278700000,2024,2,28,13,57,18,7,0.117552,0.002639,9.915111,-0.008148,0.002397,0.002879,0,0,0,0,0,0
26271,2024,02,28,50238.2880,288700000,2024,2,28,13,57,18,7,0.135118,-0.003501,9.907161,-0.008814,0.001533,0.001720,0,0,0,0,0,0
26272,2024,02,28,50238.2980,298700000,2024,2,28,13,57,18,7,0.114238,0.010993,9.914581,-0.005762,0.004349,0.003008,0,0,0,0,0,0
26273,2024,02,28,50238.3080,308700000,2024,2,28,13,57,18,7,0.122081,-0.005885,9.922532,-0.008189,0.004657,0.002407,8.998664174,38.731210870,0,0,0,0
26274,2024,02,28,50238.3180,318700000,2024,2,28,13,57,18,7,0.129852,-0.024036,9.914220,-0.009898,0.002288,0.001308,0,0,0,0,0,0
26275,2024,02,28,50238.3280,328700000,2024,2,28,13,57,18,7,0.121379,-0.006899,9.912318,-0.011369,0.003713,0.000164,0,0,0,0,0,0
26276,2024,02,28,50238.3380,338700000,2024,2,28,13,57,18,7,0.132247,-0.009966,9.916741,-0.010648,0.001443,0.002957,0,0,0,0,0,0
26277,2024,02,28,50238.3480,348700000,2024,2,28,13,57,18,7,0.105643,0.013111,9.910183,-0.009444,0.002326,0.002556,0,0,0,0,0,0
26278,2024,02,28,50238.3580,358700000,2024,2,28,13,57,18,7,0.111478,0.006104,9.924750,-0.007895,0.003589,0.001527,0,0,0,0,0,0
26279,2024,02,28,50238.3680,368700000,2024,2,28,13,57,18,7,0.131310,0.003488,9.906990,-0.010302,0.002745,0.000417,0,0,0,0,0,0
26280,2024,02,28,50238.3780,378700000,2024,2,28,13,57,18,7,0.110916,0.001529,9.916921,-0.009498,0.002493,0.001757,0,0,0,0,0,0
26281,2024,02,28,50238.3880,388700000,2024,2,28,13,57,18,7,0.129456,-0.010528,9.913617,-0.007890,0.001083,0.004230,0,0,0,0,0,0
26282,2024,02,28,50238.3980,398700000,2024,2,28,13,57,18,7,0.128271,-0.013148,9.906610,-0.008246,0.004388,0.001086,0,0,0,0,0,0
26283,2024,02,28,50238.4080,408700000,2024,2,28,13,57,18,7,0.111687,0.007261,9.916203,-0.009410,0.003760,0.002293,0,0,0,0,0,0
26284,2024,02,28,50238.4180,418700000,2024,2,28,13,57,18,7,0.121355,-0.008693,9.909468,-0.008899,0.001729,0.000999,0,0,0,0,0,0
26285,2024,02,28,50238.4280,428700000,2024,2,28,13,57,18,7,0.125226,-0.013344,9.914391,-0.009381,0.003856,0.002185,0,0,0,0,0,0
26286,2024,02,28,50238.4380,438700000,2024,2,28,13,57,18,7,0.110341,-0.006946,9.915966,-0.009080,0.003417,0.000218,0,0,0,0,0,0
26287,2024,02,28,50238.4480,448700000,2024,2,28,13,57,18,7,0.121963,-0.018734,9.916130,-0.008906,0.003184,0.004525,0,0,0,0,0,0
26288,2024,02,28,50238.4580,458700000,2024,2,28,13,57,18,7,0.119062,-0.006487,9.915488,-0.007482,0.003131,0.002416,0,0,0,0,0,0
26289,2024,02,28,50238.4680,468700000,2024,2,28,13,57,18,7,0.128769,-0.001070,9.908735,-0.009607,0.003881,0.002464,0,0,0,0,0,0
26290,2024,02,28,50238.4780,478700000,2024,2,28,13,57,18,7,0.120308,-0.009504,9.919901,-0.009219,0.004203,0.001242,0,0,0,0,0,0
26291,2024,02,28,50238.4880,488700000,2024,2,28,13,57,18,7,0.125047,-0.005048,9.914032,-0.006520,0.001625,0.001223,0,0,0,0,0,0
26292,2024,02,28,50238.4980,498700000,2024,2,28,13,57,18,7,0.120468,-0.000434,9.903407,-0.008880,0.002200,0.001382,0,0,0,0,0,0
26293,2024,02,28,50238.5080,508700000,2024,2,28,13,57,18,7,0.117718,-0.016243,9.908240,-0.005809,0.002168,0.001264,8.998663923,38.731210912,0,0,0,0
26294,2024,02,28,50238.5180,518700000,2024,2,28,13,57,18,7,0.127836,-0.009135,9.905645,-0.007542,0.001862,0.003364,0,0,0,0,0,0
26295,2024,02,28,50238.5280,528700000,2024,2,28,13,57,18,7,0.115050,-0.006462,9.899895,-0.005291,0.001756,0.000984,0,0,0,0,0,0
26296,2024,02,28,50238.5380,538700000,2024,2,28,13,57,18,7,0.120944,-0.002965,9.919662,-0.007907,0.002249,0.001894,0,0,0,0,0,0
26297,2024,02,28,50238.5480,548700000,2024,2,28,13,57,18,7,0.123135,0.002345,9.910199,-0.010921,0.005543,0.002266,0,0,0,0,0,0
26298,2024,02,28,50238.5580,558700000,2024,2,28,13,57,18,7,0.123125,0.001206,9.898104,-0.007273,0.002359,0.001922,0,0,0,0,0,0
26299,2024,02,28,50238.5680,568700000,2024,2,28,13,57,18,7,0.124631,-0.011558,9.899675,-0.009149,0.002996,0.001658,0,0,0,0,0,0
26300,2024,02,28,50238.5780,578700000,2024,2,28,13,57,18,7,0.119607,-0.007134,9.907905,-0.009300,0.003573,-0.001809,0,0,0,0,0,0
26301,2024,02,28,50238.5880,588700000,2024,2,28,13,57,18,7,0.119921,-0.004563,9.905537,-0.009167,0.001679,-0.000160,0,0,0,0,0,0
26302,2024,02,28,50238.5980,598700000,2024,2,28,13,57,18,7,0.110933,-0.007755,9.916803,-0.008328,0.004152,0.001956,0,0,0,0,0,0
26303,2024,02,28,50238.6080,608700000,2024,2,28,13,57,18,7,0.121657,-0.002772,9.905440,-0.008833,0.001191,0.002482,0,0,0,0,0,0
26304,2024,02,28,50238.6180,618700000,2024,2,28,13,57,18,7,0.102833,-0.014572,9.923692,-0.009060,0.001308,0.000811,0,0,0,0,0,0
26305,2024,02,28,50238.6280,628700000,2024,2,28,13,57,18,7,0.120727,-0.015179,9.913029,-0.008541,0.001062,0.003605,0,0,0,0,0,0
26306,2024,02,28,50238.6380,638700000,2024,2,28,13,57,18,7,0.132937,-0.005452,9.910817,-0.007148,0.005267,0.001977,0,0,0,0,0,0
26307,2024,02,28,50238.6480,648700000,2024,2,28,13,57,18,7,0.123933,-0.009658,9.907844,-0.009443,0.003267,0.001923,0,0,0,0,0,0
26308,2024,02,28,50238.6580,658700000,2024,2,28,13,57,18,7,0.132061,-0.016230,9.904524,-0.011448,0.005083,0.002085,0,0,0,0,0,0
26309,2024,02,28,50238.6680,668700000,2024,2,28,13,57,18,7,0.130845,-0.017320,9.908779,-0.009329,0.003869,0.002385,0,0,0,0,0,0
26310,2024,02,28,50238.6780,678700000,2024,2,28,13,57,18,7,0.117932,0.015280,9.907867,-0.009364,0.003428,0.002744,0,0,0,0,0,0
26311,2024,02,28,50238.6880,688700000,2024,2,28,13,57,18,7,0.122123,-0.005541,9.913157,-0.007901,0.002071,0.001192,0,0,0,0,0,0
26312,2024,02,28,50238.6980,698700000,2024,2,28,13,57,18,7,0.122287,-0.014027,9.906644,-0.010131,0.003063,0.001007,0,0,0,0,0,0
26313,2024,02,28,50238.7080,708700000,2024,2,28,13,57,18,7,0.120739,-0.006340,9.925946,-0.009714,0.002225,0.003522,8.998663734,38.731210898,0,0,0,0
26314,2024,02,28,50238.7180,718700000,2024,2,28,13,57,18,7,0.117991,-0.017088,9.902081,-0.004584,0.003506,-0.000858,0,0,0,0,0,0
26315,2024,02,28,50238.7280,728700000,2024,2,28,13,57,18,7,0.106316,-0.012848,9.908556,-0.009744,0.001033,0.002127,0,0,0,0,0,0
26316,2024,02,28,50238.7380,738700000,2024,2,28,13,57,18,7,0.123636,-0.012374,9.907842,-0.007534,0.003081,0.001528,0,0,0,0,0,0
26317,2024,02,28,50238.7480,748700000,2024,2,28,13,57,18,7,0.110536,0.011150,9.904323,-0.010962,0.001776,0.003840,0,0,0,0,0,0
26318,2024,02,28,50238.7580,758700000,2024,2,28,13,57,18,7,0.118947,0.008644,9.913696,-0.009273,0.003720,0.001838,0,0,0,0,0,0
26319,2024,02,28,50238.7680,768700000,2024,2,28,13,57,18,7,0.140375,-0.004315,9.915543,-0.009384,0.001589,0.002029,0,0,0,0,0,0
26320,2024,02,28,50238.7780,778700000,2024,2,28,13,57,18,7,0.133083,-0.008498,9.904534,-0.009609,0.004173,0.002554,0,0,0,0,0,0
26321,2024,02,28,50238.7880,788700000,2024,2,28,13,57,18,7,0.131124,-0.001433,9.912925,-0.006621,0.005236,0.002989,0,0,0,0,0,0
26322,2024,02,28,50238.7980,798700000,2024,2,28,13,57,18,7,0.118503,0.005512,9.904202,-0.009391,0.002738,-0.000852,0,0,0,0,0,0
26323,2024,02,28,50238.8080,808700000,2024,2,28,13,57,18,7,0.123884,-0.007656,9.906658,-0.009827,0.001330,0.001439,0,0,0,0,0,0
26324,2024,02,28,50238.8180,818700000,2024,2,28,13,57,18,7,0.121632,-0.005895,9.913150,-0.008819,0.003339,0.001639,0,0,0,0,0,0
26325,2024,02,28,50238.8280,828700000,2024,2,28,13,57,18,7,0.113788,-0.008067,9.904265,-0.011925,0.002063,0.000644,0,0,0,0,0,0
26326,2024,02,28,50238.8380,838700000,2024,2,28,13,57,18,7,0.115779,-0.005195,9.919599,-0.008137,0.004290,0.000597,0,0,0,0,0,0
26327,2024,02,28,50238.8480,848700000,2024,2,28,13,57,18,7,0.109100,-0.009608,9.893292,-0.009725,0.003323,0.003090,0,0,0,0,0,0
26328,2024,02,28,50238.8580,858700000,2024,2,28,13,57,18,7,0.114216,-0.012863,9.928234,-0.011126,0.000388,0.002277,0,0,0,0,0,0
26329,2024,02,28,50238.8680,868700000,2024,2,28,13,57,18,7,0.127177,-0.005441,9.914057,-0.011029,0.002101,0.000955,0,0,0,0,0,0
26330,2024,02,28,50238.8780,878700000,2024,2,28,13,57,18,7,0.116620,-0.007582,9.905253,-0.007642,0.004226,0.001581,0,0,0,0,0,0
26331,2024,02,28,50238.8880,888700000,2024,2,28,13,57,18,7,0.131803,-0.015270,9.907247,-0.009135,0.003234,0.003901,0,0,0,0,0,0
26332,2024,02,28,50238.8980,898700000,2024,2,28,13,57,18,7,0.126846,-0.009120,9.922357,-0.009971,0.003474,0.000674,0,0,0,0,0,0
26333,2024,02,28,50238.9080,908700000,2024,2,28,13,57,18,7,0.121573,-0.002555,9.912438,-0.009209,0.002948,0.002655,8.998663648,38.731210842,0,0,0,0
26334,2024,02,28,50238.9180,918700000,2024,2,28,13,57,18,7,0.126006,-0.008869,9.921522,-0.008466,0.007515,-0.001109,0,0,0,0,0,0
26335,2024,02,28,50238.9280,928700000,2024,2,28,13,57,18,7,0.121758,-0.005578,9.914574,-0.007350,0.002270,0.001783,0,0,0,0,0,0
26336,2024,02,28,50238.9380,938700000,2024,2,28,13,57,18,7,0.113349,-0.000999,9.907343,-0.009844,0.005128,0.002748,0,0,0,0,0,0
26337,2024,02,28,50238.9480,948700000,2024,2,28,13,57,18,7,0.116114,0.000627,9.910702,-0.006824,0.003704,0.001987,0,0,0,0,0,0
26338,2024,02,28,50238.9580,958700000,2024,2,28,13,57,18,7,0.127226,-0.012537,9.908130,-0.008683,0.001014,0.001720,0,0,0,0,0,0
26339,2024,02,28,50238.9680,968700000,2024,2,28,13,57,18,7,0.134056,-0.005229,9.913555,-0.010820,0.001394,0.000287,0,0,0,0,0,0
26340,2024,02,28,50238.9780,978700000,2024,2,28,13,57,18,7,0.130103,-0.014478,9.905445,-0.008503,0.003163,-0.000045,0,0,0,0,0,0
26341,2024,02,28,50238.9880,988700000,2024,2,28,13,57,18,7,0.129737,-0.007318,9.910894,-0.008656,0.003141,0.001999,0,0,0,0,0,0
26342,2024,02,28,50238.9980,998700000,2024,2,28,13,57,18,7,0.115056,-0.001852,9.907482,-0.007020,0.000148,0.001392,0,0,0,0,0,0
26343,2024,02,28,50239.0080,8700000,2024,2,28,13,57,19,7,0.115865,-0.004571,9.917459,-0.009177,0.003292,0.001670,0,0,0,0,0,0
26344,2024,02,28,50239.0180,18700000,2024,2,28,13,57,19,7,0.122023,-0.003553,9.918374,-0.006772,-0.000399,0.002535,0,0,0,0,0,0
26345,2024,02,28,50239.0280,28700000,2024,2,28,13,57,19,7,0.109707,0.009485,9.905856,-0.008651,0.003891,0.002800,0,0,0,0,0,0
26346,2024,02,28,50239.0380,38700000,2024,2,28,13,57,19,7,0.111329,0.000905,9.912054,-0.011251,0.000903,0.001181,0,0,0,0,0,0
26347,2024,02,28,50239.0480,48700000,2024,2,28,13,57,19,7,0.122811,-0.005564,9.926335,-0.007111,0.004531,0.000313,0,0,0,0,0,0
26348,2024,02,28,50239.0580,58700000,2024,2,28,13,57,19,7,0.118867,0.005268,9.922359,-0.007169,0.004203,0.002359,0,0,0,0,0,0
26349,2024,02,28,50239.0680,68700000,2024,2,28,13,57,19,7,0.125687,-0.009686,9.901347,-0.008731,0.000103,0.000634,0,0,0,0,0,0
26350,2024,02,28,50239.0780,78700000,2024,2,28,13,57,19,7,0.115539,-0.004001,9.913896,-0.009103,0.001729,0.003135,0,0,0,0,0,0
26351,2024,02,28,50239.0880,88700000,2024,2,28,13,57,19,7,0.118801,0.004399,9.911677,-0.006527,0.004405,-0.001496,0,0,0,0,0,0
26352,2024,02,28,50239.0980,98700000,2024,2,28,13,57,19,7,0.121968,-0.008519,9.902478,-0.008962,0.001008,0.000394,0,0,0,0,0,0
26353,2024,02,28,50239.1080,108700000,2024,2,28,13,57,19,7,0.122097,0.000631,9.926910,-0.008933,0.000713,0.002002,8.998663688,38.731210768,0,0,0,0
26354,2024,02,28,50239.1180,118700000,2024,2,28,13,57,19,7,0.118610,0.000286,9.912870,-0.012115,0.002911,0.003117,0,0,0,0,0,0
26355,2024,02,28,50239.1280,128700000,2024,2,28,13,57,19,7,0.123771,-0.011115,9.923974,-0.009732,-0.000677,0.001347,0,0,0,0,0,0
26356,2024,02,28,50239.1380,138700000,2024,2,28,13,57,19,7,0.112855,-0.010223,9.914581,-0.008510,0.002600,0.002561,0,0,0,0,0,0
26357,2024,02,28,50239.1480,148700000,2024,2,28,13,57,19,7,0.116111,-0.011992,9.917233,-0.009791,0.003409,0.002249,0,0,0,0,0,0
26358,2024,02,28,50239.1580,158700000,2024,2,28,13,57,19,7,0.121967,-0.001833,9.902714,-0.009834,0.003584,-0.000248,0,0,0,0,0,0
26359,2024,02,28,50239.1680,168700000,2024,2,28,13,57,19,7,0.120801,-0.019479,9.917068,-0.008198,0.003895,0.003675,0,0,0,0,0,0
26360,2024,02,28,50239.1780,178700000,2024,2,28,13,57,19,7,0.126531,-0.005696,9.900999,-0.009209,0.002608,0.001693,0,0,0,0,0,0
26361,2024,02,28,50239.1880,188700000,2024,2,28,13,57,19,7,0.115456,0.005068,9.910568,-0.006774,0.004632,0.003025,0,0,0,0,0,0
26362,2024,02,28,50239.1980,198700000,2024,2,28,13,57,19,7,0.127783,-0.011762,9.903631,-0.009795,0.001558,0.001046,0,0,0,0,0,0
26363,2024,02,28,50239.2080,208700000,2024,2,28,13,57,19,7,0.106593,0.001700,9.921957,-0.008569,0.004036,0.002613,0,0,0,0,0,0
26364,2024,02,28,50239.2180,218700000,2024,2,28,13,57,19,7,0.117481,0.011934,9.902642,-0.010978,0.002917,0.003019,0,0,0,0,0,0
26365,2024,02,28,50239.2280,228700000,2024,2,28,13,57,19,7,0.123980,-0.011289,9.919475,-0.009193,0.003241,0.002716,0,0,0,0,0,0
26366,2024,02,28,50239.2380,238700000,2024,2,28,13,57,19,7,0.126084,-0.011143,9.916420,-0.010468,0.004990,-0.000226,0,0,0,0,0,0
26367,2024,02,28,50239.2480,248700000,2024,2,28,13,57,19,7,0.139616,-0.013160,9.923246,-0.009936,0.004269,-0.000454,0,0,0,0,0,0
26368,2024,02,28,50239.2580,258700000,2024,2,28,13,57,19,7,0.114997,-0.005553,9.906415,-0.011980,0.003731,0.001238,0,0,0,0,0,0
26369,2024,02,28,50239.2680,268700000,2024,2,28,13,57,19,7,0.131423,-0.011489,9.893950,-0.008937,-0.000141,0.004334,0,0,0,0,0,0
26370,2024,02,28,50239.2780,278700000,2024,2,28,13,57,19,7,0.134153,-0.013372,9.915817,-0.008708,0.003999,0.000323,0,0,0,0,0,0
26371,2024,02,28,50239.2880,288700000,2024,2,28,13,57,19,7,0.113095,-0.010900,9.916594,-0.009421,0.002644,0.002567,0,0,0,0,0,0
26372,2024,02,28,50239.2980,298700000,2024,2,28,13,57,19,7,0.122630,-0.002999,9.914944,-0.008286,0.001371,-0.001156,0,0,0,0,0,0
26373,2024,02,28,50239.3080,308700000,2024,2,28,13,57,19,7,0.132378,-0.016803,9.902273,-0.007980,0.004430,0.001473,8.998663495,38.731210640,0,0,0,0
26374,2024,02,28,50239.3180,318700000,2024,2,28,13,57,19,7,0.120631,-0.017214,9.914568,-0.009132,0.004286,0.000602,0,0,0,0,0,0
26375,2024,02,28,50239.3280,328700000,2024,2,28,13,57,19,7,0.128047,-0.008074,9.908848,-0.008081,0.000196,0.001662,0,0,0,0,0,0
26376,2024,02,28,50239.3380,338700000,2024,2,28,13,57,19,7,0.131823,-0.005226,9.907954,-0.008839,0.005109,0.002873,0,0,0,0,0,0
26377,2024,02,28,50239.3480,348700000,2024,2,28,13,57,19,7,0.120904,-0.005523,9.916340,-0.007223,0.003747,-0.000397,0,0,0,0,0,0
26378,2024,02,28,50239.3580,358700000,2024,2,28,13,57,19,7,0.120097,0.001003,9.917160,-0.008070,0.005249,0.002477,0,0,0,0,0,0
26379,2024,02,28,50239.3680,368700000,2024,2,28,13,57,19,7,0.121563,-0.002572,9.909710,-0.008393,0.002635,0.001891,0,0,0,0,0,0
26380,2024,02,28,50239.3780,378700000,2024,2,28,13,57,19,7,0.117845,-0.015439,9.914412,-0.010592,0.003191,0.001815,0,0,0,0,0,0
26381,2024,02,28,50239.3880,388700000,2024,2,28,13,57,19,7,0.115361,-0.004055,9.902506,-0.009223,0.004546,0.001598,0,0,0,0,0,0
26382,2024,02,28,50239.3980,398700000,2024,2,28,13,57,19,7,0.129834,-0.009413,9.904840,-0.010149,0.000131,0.003102,0,0,0,0,0,0
26383,2024,02,28,50239.4080,408700000,2024,2,28,13,57,19,7,0.134087,-0.018394,9.918556,-0.009147,0.005073,0.000627,0,0,0,0,0,0
26384,2024,02,28,50239.4180,418700000,2024,2,28,13,57,19,7,0.118734,-0.008074,9.908603,-0.007667,0.003070,-0.000031,0,0,0,0,0,0
26385,2024,02,28,50239.4280,428700000,2024,2,28,13,57,19,7,0.125734,-0.003769,9.909761,-0.009444,0.003809,0.000872,0,0,0,0,0,0
26386,2024,02,28,50239.4380,438700000,2024,2,28,13,57,19,7,0.128532,-0.006128,9.918347,-0.008035,0.003836,0.001311,0,0,0,0,0,0
26387,2024,02,28,50239.4480,448700000,2024,2,28,13,57,19,7,0.122928,0.002567,9.926451,-0.007220,0.003341,0.001873,0,0,0,0,0,0
26388,2024,02,28,50239.4580,458700000,2024,2,28,13,57,19,7,0.133274,-0.006510,9.905005,-0.008199,0.003012,0.001848,0,0,0,0,0,0
26389,2024,02,28,50239.4680,468700000,2024,2,28,13,57,19,7,0.127083,-0.007172,9.909070,-0.007660,0.003435,0.002249,0,0,0,0,0,0
26390,2024,02,28,50239.4780,478700000,2024,2,28,13,57,19,7,0.122284,0.005116,9.905911,-0.007055,0.004081,-0.000022,0,0,0,0,0,0
26391,2024,02,28,50239.4880,488700000,2024,2,28,13,57,19,7,0.121936,-0.004771,9.922167,-0.007693,0.003148,0.003435,0,0,0,0,0,0
26392,2024,02,28,50239.4980,498700000,2024,2,28,13,57,19,7,0.112481,-0.000905,9.890015,-0.009936,0.004636,0.001777,0,0,0,0,0,0
26393,2024,02,28,50239.5080,508700000,2024,2,28,13,57,19,7,0.114781,-0.003836,9.902735,-0.005806,0.005314,0.001758,8.998663383,38.731210606,0,0,0,0
26394,2024,02,28,50239.5180,518700000,2024,2,28,13,57,19,7,0.129220,-0.011851,9.918009,-0.010142,0.002115,0.002155,0,0,0,0,0,0
26395,2024,02,28,50239.5280,528700000,2024,2,28,13,57,19,7,0.117419,-0.010236,9.930058,-0.009931,0.003059,0.000307,0,0,0,0,0,0
26396,2024,02,28,50239.5380,538700000,2024,2,28,13,57,19,7,0.117960,-0.010613,9.911083,-0.008051,0.001103,0.000099,0,0,0,0,0,0
26397,2024,02,28,50239.5480,548700000,2024,2,28,13,57,19,7,0.118925,-0.013042,9.900306,-0.008185,0.000008,-0.000547,0,0,0,0,0,0
26398,2024,02,28,50239.5580,558700000,2024,2,28,13,57,19,7,0.120935,0.003907,9.901396,-0.009066,0.003358,0.001660,0,0,0,0,0,0
26399,2024,02,28,50239.5680,568700000,2024,2,28,13,57,19,7,0.111626,-0.005709,9.922388,-0.008230,0.003256,0.002920,0,0,0,0,0,0
26400,2024,02,28,50239.5780,578700000,2024,2,28,13,57,19,7,0.137679,-0.021001,9.910301,-0.008042,0.003583,0.000425,0,0,0,0,0,0
26401,2024,02,28,50239.5880,588700000,2024,2,28,13,57,19,7,0.114404,-0.007902,9.911633,-0.007605,0.004233,0.001460,0,0,0,0,0,0
26402,2024,02,28,50239.5980,598700000,2024,2,28,13,57,19,7,0.133234,-0.012314,9.917949,-0.009223,0.004939,0.002023,0,0,0,0,0,0
26403,2024,02,28,50239.6080,608700000,2024,2,28,13,57,19,7,0.102180,0.001008,9.908369,-0.008274,0.004369,0.000618,0,0,0,0,0,0
26404,2024,02,28,50239.6180,618700000,2024,2,28,13,57,19,7,0.127152,-0.006348,9.922244,-0.007744,0.001664,0.001451,0,0,0,0,0,0
26405,2024,02,28,50239.6280,628700000,2024,2,28,13,57,19,7,0.132777,-0.006942,9.907254,-0.009233,0.002481,0.001402,0,0,0,0,0,0
26406,2024,02,28,50239.6380,638700000,2024,2,28,13,57,19,7,0.120335,0.005703,9.905180,-0.010709,0.004007,0.000568,0,0,0,0,0,0
26407,2024,02,28,50239.6480,648700000,2024,2,28,13,57,19,7,0.118368,0.005235,9.911673,-0.009180,0.002422,0.003258,0,0,0,0,0,0
26408,2024,02,28,50239.6580,658700000,2024,2,28,13,57,19,7,0.114938,0.010298,9.925623,-0.009255,0.002607,0.000964,0,0,0,0,0,0
26409,2024,02,28,50239.6680,668700000,2024,2,28,13,57,19,7,0.128636,-0.003586,9.918581,-0.010267,-0.001092,0.003182,0,0,0,0,0,0
26410,2024,02,28,50239.6780,678700000,2024,2,28,13,57,19,7,0.126753,-0.018272,9.914890,-0.010208,0.001650,0.001163,0,0,0,0,0,0
26411,2024,02,28,50239.6880,688700000,2024,2,28,13,57,19,7,0.134075,-0.016392,9.920805,-0.005697,0.002637,0.001639,0,0,0,0,0,0
26412,2024,02,28,50239.6980,698700000,2024,2,28,13,57,19,7,0.123479,-0.013326,9.923383,-0.010448,0.003605,0.002989,0,0,0,0,0,0
26413,2024,02,28,50239.7080,708700000,2024,2,28,13,57,19,7,0.124197,-0.009554,9.921372,-0.006642,0.002196,0.002740,8.998663315,38.731210592,0,0,0,0
26414,2024,02,28,50239.7180,718700000,2024,2,28,13,57,19,7,0.147542,-0.018243,9.912680,-0.010192,0.001980,0.001007,0,0,0,0,0,0
26415,2024,02,28,50239.7280,728700000,2024,2,28,13,57,19,7,0.132339,-0.014252,9.915918,-0.007930,0.003835,0.002730,0,0,0,0,0,0
26416,2024,02,28,50239.7380,738700000,2024,2,28,13,57,19,7,0.118625,0.001090,9.918801,-0.008924,0.001248,-0.000649,0,0,0,0,0,0
26417,2024,02,28,50239.7480,748700000,2024,2,28,13,57,19,7,0.126177,-0.010833,9.898860,-0.010277,0.003788,0.000773,0,0,0,0,0,0
26418,2024,02,28,50239.7580,758700000,2024,2,28,13,57,19,7,0.108406,-0.003168,9.922700,-0.011857,0.004912,0.001748,0,0,0,0,0,0
26419,2024,02,28,50239.7680,768700000,2024,2,28,13,57,19,7,0.122953,-0.003365,9.914825,-0.009898,0.001900,0.001128,0,0,0,0,0,0
26420,2024,02,28,50239.7780,778700000,2024,2,28,13,57,19,7,0.119589,0.000667,9.917383,-0.009693,0.001799,0.000004,0,0,0,0,0,0
26421,2024,02,28,50239.7880,788700000,2024,2,28,13,57,19,7,0.131701,0.010730,9.917424,-0.010047,0.004527,0.003275,0,0,0,0,0,0
26422,2024,02,28,50239.7980,798700000,2024,2,28,13,57,19,7,0.123888,-0.002996,9.908080,-0.009584,0.004537,0.000949,0,0,0,0,0,0
26423,2024,02,28,50239.8080,808700000,2024,2,28,13,57,19,7,0.119185,-0.004151,9.917738,-0.008528,0.000732,0.004346,0,0,0,0,0,0
26424,2024,02,28,50239.8180,818700000,2024,2,28,13,57,19,7,0.118854,-0.011246,9.905648,-0.008046,0.004151,0.003069,0,0,0,0,0,0
26425,2024,02,28,50239.8280,828700000,2024,2,28,13,57,19,7,0.123161,0.004444,9.911860,-0.008383,0.001735,0.001638,0,0,0,0,0,0
26426,2024,02,28,50239.8380,838700000,2024,2,28,13,57,19,7,0.117374,-0.001661,9.898022,-0.008558,0.003915,0.000734,0,0,0,0,0,0
26427,2024,02,28,50239.8480,848700000,2024,2,28,13,57,19,7,0.121492,0.002606,9.899738,-0.008565,0.005807,0.002525,0,0,0,0,0,0
26428,2024,02,28,50239.8580,858700000,2024,2,28,13,57,19,7,0.110507,0.004623,9.901723,-0.009069,0.002312,-0.000517,0,0,0,0,0,0
26429,2024,02,28,50239.8680,868700000,2024,2,28,13,57,19,7,0.132557,-0.008045,9.915792,-0.011513,0.004559,0.002547,0,0,0,0,0,0
26430,2024,02,28,50239.8780,878700000,2024,2,28,13,57,19,7,0.137833,-0.013469,9.926426,-0.011380,0.006485,0.004357,0,0,0,0,0,0
26431,2024,02,28,50239.8880,888700000,2024,2,28,13,57,19,7,0.129049,-0.004975,9.918826,-0.009673,0.002892,0.000621,0,0,0,0,0,0
26432,2024,02,28,50239.8980,898700000,2024,2,28,13,57,19,7,0.117270,0.004690,9.905137,-0.008648,0.002036,0.002805,0,0,0,0,0,0
26433,2024,02,28,50239.9080,908700000,2024,2,28,13,57,19,7,0.123050,0.001618,9.907119,-0.007622,0.002403,0.002567,8.998663333,38.731210612,0,0,0,0
26434,2024,02,28,50239.9180,918700000,2024,2,28,13,57,19,7,0.131182,-0.009846,9.914351,-0.010397,0.002148,0.002578,0,0,0,0,0,0
26435,2024,02,28,50239.9280,928700000,2024,2,28,13,57,19,7,0.125254,-0.005754,9.922686,-0.005800,-0.001481,-0.001226,0,0,0,0,0,0
26436,2024,02,28,50239.9380,938700000,2024,2,28,13,57,19,7,0.126754,-0.010896,9.918800,-0.010313,0.003136,0.002149,0,0,0,0,0,0
26437,2024,02,28,50239.9480,948700000,2024,2,28,13,57,19,7,0.123572,0.000970,9.902493,-0.009928,0.004952,0.000104,0,0,0,0,0,0
26438,2024,02,28,50239.9580,958700000,2024,2,28,13,57,19,7,0.127438,-0.015254,9.912995,-0.009674,0.002123,0.001920,0,0,0,0,0,0
26439,2024,02,28,50239.9680,968700000,2024,2,28,13,57,19,7,0.118357,-0.008864,9.923076,-0.010638,0.003836,0.001084,0,0,0,0,0,0
26440,2024,02,28,50239.9780,978700000,2024,2,28,13,57,19,7,0.109588,-0.004573,9.916426,-0.008097,0.002510,0.004534,0,0,0,0,0,0
26441,2024,02,28,50239.9880,988700000,2024,2,28,13,57,19,7,0.113414,-0.007419,9.912217,-0.007454,0.004834,-0.000400,0,0,0,0,0,0
26442,2024,02,28,50239.9980,998700000,2024,2,28,13,57,19,7,0.123970,-0.005622,9.904529,-0.010581,0.004444,0.001436,0,0,0,0,0,0
26443,2024,02,28,50240.0080,8700000,2024,2,28,13,57,20,7,0.121367,-0.010268,9.910183,-0.010158,0.004762,0.002198,0,0,0,0,0,0
26444,2024,02,28,50240.0180,18700000,2024,2,28,13,57,20,7,0.128859,-0.015262,9.923459,-0.006529,0.005162,0.001013,0,0,0,0,0,0
26445,2024,02,28,50240.0280,28700000,2024,2,28,13,57,20,7,0.116273,-0.003843,9.920432,-0.009622,0.002144,0.000345,0,0,0,0,0,0
26446,2024,02,28,50240.0380,38700000,2024,2,28,13,57,20,7,0.135573,-0.010399,9.903028,-0.009257,0.002775,0.000856,0,0,0,0,0,0
26447,2024,02,28,50240.0480,48700000,2024,2,28,13,57,20,7,0.136177,-0.016028,9.909798,-0.007260,0.004090,0.000136,0,0,0,0,0,0
26448,2024,02,28,50240.0580,58700000,2024,2,28,13,57,20,7,0.120584,-0.008211,9.909938,-0.009903,0.003470,0.001487,0,0,0,0,0,0
26449,2024,02,28,50240.0680,68700000,2024,2,28,13,57,20,7,0.126543,-0.016866,9.915602,-0.008120,0.004189,0.000417,0,0,0,0,0,0
26450,2024,02,28,50240.0780,78700000,2024,2,28,13,57,20,7,0.118994,0.006694,9.901358,-0.007266,0.004140,-0.000443,0,0,0,0,0,0
26451,2024,02,28,50240.0880,88700000,2024,2,28,13,57,20,7,0.114295,0.001904,9.910078,-0.009492,0.001766,0.001065,0,0,0,0,0,0
26452,2024,02,28,50240.0980,98700000,2024,2,28,13,57,20,7,0.118470,0.002344,9.907884,-0.008786,0.001231,0.003764,0,0,0,0,0,0
26453,2024,02,28,50240.1080,108700000,2024,2,28,13,57,20,7,0.119893,-0.004345,9.905772,-0.008371,0.004516,0.004159,8.998663521,38.731210694,0,0,0,0
26454,2024,02,28,50240.1180,118700000,2024,2,28,13,57,20,7,0.124990,-0.010232,9.914391,-0.009278,0.003950,0.002466,0,0,0,0,0,0
26455,2024,02,28,50240.1280,128700000,2024,2,28,13,57,20,7,0.123541,-0.001190,9.920053,-0.008117,0.003571,0.003682,0,0,0,0,0,0
26456,2024,02,28,50240.1380,138700000,2024,2,28,13,57,20,7,0.120118,-0.008040,9.914554,-0.007766,0.003302,0.001999,0,0,0,0,0,0
26457,2024,02,28,50240.1480,148700000,2024,2,28,13,57,20,7,0.116085,0.001486,9.917696,-0.011032,0.001527,0.003597,0,0,0,0,0,0
26458,2024,02,28,50240.1580,158700000,2024,2,28,13,57,20,7,0.112234,-0.013144,9.913385,-0.009293,0.002610,0.001292,0,0,0,0,0,0
26459,2024,02,28,50240.1680,168700000,2024,2,28,13,57,20,7,0.108597,-0.015530,9.900408,-0.009317,0.006710,0.000962,0,0,0,0,0,0
26460,2024,02,28,50240.1780,178700000,2024,2,28,13,57,20,7,0.119428,-0.009116,9.929849,-0.007968,0.000627,0.004282,0,0,0,0,0,0
26461,2024,02,28,50240.1880,188700000,2024,2,28,13,57,20,7,0.119297,-0.008099,9.913241,-0.007445,0.004642,0.001319,0,0,0,0,0,0
26462,2024,02,28,50240.1980,198700000,2024,2,28,13,57,20,7,0.127880,-0.020172,9.909801,-0.011603,0.000435,0.003251,0,0,0,0,0,0
26463,2024,02,28,50240.2080,208700000,2024,2,28,13,57,20,7,0.131081,-0.002883,9.920401,-0.008617,0.004169,0.001979,0,0,0,0,0,0
26464,2024,02,28,50240.2180,218700000,2024,2,28,13,57,20,7,0.131060,-0.000809,9.910187,-0.010011,0.003102,0.002741,0,0,0,0,0,0
26465,2024,02,28,50240.2280,228700000,2024,2,28,13,57,20,7,0.122131,-0.005276,9.914824,-0.007620,0.004864,0.001644,0,0,0,0,0,0
26466,2024,02,28,50240.2380,238700000,2024,2,28,13,57,20,7,0.134921,-0.001748,9.908582,-0.007965,0.002973,0.001613,0,0,0,0,0,0
26467,2024,02,28,50240.2480,248700000,2024,2,28,13,57,20,7,0.125345,-0.010118,9.910480,-0.010880,0.005341,0.002897,0,0,0,0,0,0
26468,2024,02,28,50240.2580,258700000,2024,2,28,13,57,20,7,0.113883,-0.012406,9.912342,-0.010394,0.003607,0.003487,0,0,0,0,0,0
26469,2024,02,28,50240.2680,268700000,2024,2,28,13,57,20,7,0.111646,0.009634,9.929374,-0.008115,0.002276,0.000228,0,0,0,0,0,0
26470,2024,02,28,50240.2780,278700000,2024,2,28,13,57,20,7,0.121500,-0.002414,9.908401,-0.009561,0.001823,0.003607,0,0,0,0,0,0
26471,2024,02,28,50240.2880,288700000,2024,2,28,13,57,20,7,0.135996,-0.010417,9.885123,-0.007062,0.003366,0.002450,0,0,0,0,0,0
26472,2024,02,28,50240.2980,298700000,2024,2,28,13,57,20,7,0.127083,0.001296,9.921763,-0.008189,0.003105,0.003326,0,0,0,0,0,0
26473,2024,02,28,50240.3080,308700000,2024,2,28,13,57,20,7,0.119314,-0.016475,9.922976,-0.010670,0.006092,0.001160,8.998663625,38.731210751,0,0,0,0
26474,2024,02,28,50240.3180,318700000,2024,2,28,13,57,20,7,0.118948,-0.005162,9.884408,-0.006171,0.003584,0.002956,0,0,0,0,0,0
26475,2024,02,28,50240.3280,328700000,2024,2,28,13,57,20,7,0.112919,-0.008513,9.920861,-0.010454,0.002170,-0.000091,0,0,0,0,0,0
26476,2024,02,28,50240.3380,338700000,2024,2,28,13,57,20,7,0.122749,-0.003120,9.908062,-0.008092,0.002458,0.000838,0,0,0,0,0,0
26477,2024,02,28,50240.3480,348700000,2024,2,28,13,57,20,7,0.117479,-0.003697,9.901585,-0.010188,0.002110,-0.000075,0,0,0,0,0,0
26478,2024,02,28,50240.3580,358700000,2024,2,28,13,57,20,7,0.126514,-0.020901,9.920939,-0.008954,0.002244,0.002573,0,0,0,0,0,0
26479,2024,02,28,50240.3680,368700000,2024,2,28,13,57,20,7,0.123277,-0.014728,9.913300,-0.008425,0.002822,0.002443,0,0,0,0,0,0
26480,2024,02,28,50240.3780,378700000,2024,2,28,13,57,20,7,0.123964,-0.009338,9.906547,-0.007613,0.003942,-0.000080,0,0,0,0,0,0
26481,2024,02,28,50240.3880,388700000,2024,2,28,13,57,20,7,0.115080,-0.002020,9.923499,-0.011448,0.000019,0.002285,0,0,0,0,0,0
26482,2024,02,28,50240.3980,398700000,2024,2,28,13,57,20,7,0.121058,-0.008373,9.915281,-0.011060,0.004303,-0.000978,0,0,0,0,0,0
26483,2024,02,28,50240.4080,408700000,2024,2,28,13,57,20,7,0.123462,-0.015308,9.922316,-0.008317,0.002922,0.001287,0,0,0,0,0,0
26484,2024,02,28,50240.4180,418700000,2024,2,28,13,57,20,7,0.112977,-0.007072,9.901764,-0.009122,0.002597,0.001245,0,0,0,0,0,0
26485,2024,02,28,50240.4280,428700000,2024,2,28,13,57,20,7,0.115607,-0.004347,9.914253,-0.006218,0.003415,0.002055,0,0,0,0,0,0
26486,2024,02,28,50240.4380,438700000,2024,2,28,13,57,20,7,0.118960,-0.006209,9.916914,-0.009330,0.001749,0.001886,0,0,0,0,0,0
26487,2024,02,28,50240.4480,448700000,2024,2,28,13,57,20,7,0.127909,-0.023620,9.911592,-0.008408,0.002706,0.002485,0,0,0,0,0,0
26488,2024,02,28,50240.4580,458700000,2024,2,28,13,57,20,7,0.124276,0.007104,9.931682,-0.010252,0.003025,0.002642,0,0,0,0,0,0
26489,2024,02,28,50240.4680,468700000,2024,2,28,13,57,20,7,0.117829,-0.004511,9.903252,-0.009770,0.002923,-0.000947,0,0,0,0,0,0
26490,2024,02,28,50240.4780,478700000,2024,2,28,13,57,20,7,0.118680,-0.004434,9.896146,-0.009178,0.002251,0.003192,0,0,0,0,0,0
26491,2024,02,28,50240.4880,488700000,2024,2,28,13,57,20,7,0.133082,-0.012141,9.931106,-0.009381,0.002822,0.001268,0,0,0,0,0,0
26492,2024,02,28,50240.4980,498700000,2024,2,28,13,57,20,7,0.115997,-0.010782,9.910582,-0.011407,-0.001338,0.000513,0,0,0,0,0,0
26493,2024,02,28,50240.5080,508700000,2024,2,28,13,57,20,7,0.113795,-0.004196,9.918858,-0.010020,-0.001870,0.003274,8.998663893,38.731210882,0,0,0,0
26494,2024,02,28,50240.5180,518700000,2024,2,28,13,57,20,7,0.123711,-0.006231,9.923974,-0.009054,0.001013,0.004166,0,0,0,0,0,0
26495,2024,02,28,50240.5280,528700000,2024,2,28,13,57,20,7,0.121687,-0.008749,9.913753,-0.008858,0.002368,0.002454,0,0,0,0,0,0
26496,2024,02,28,50240.5380,538700000,2024,2,28,13,57,20,7,0.118234,0.001417,9.905033,-0.009063,0.003006,0.002778,0,0,0,0,0,0
26497,2024,02,28,50240.5480,548700000,2024,2,28,13,57,20,7,0.129144,-0.003950,9.931166,-0.009712,0.003352,0.001702,0,0,0,0,0,0
26498,2024,02,28,50240.5580,558700000,2024,2,28,13,57,20,7,0.129760,-0.014547,9.904846,-0.010153,0.004684,0.003020,0,0,0,0,0,0
26499,2024,02,28,50240.5680,568700000,2024,2,28,13,57,20,7,0.107134,-0.005765,9.906308,-0.008120,0.002497,0.002904,0,0,0,0,0,0
26500,2024,02,28,50240.5780,578700000,2024,2,28,13,57,20,7,0.115383,-0.012370,9.916864,-0.010370,0.005487,0.003073,0,0,0,0,0,0
26501,2024,02,28,50240.5880,588700000,2024,2,28,13,57,20,7,0.113212,0.000727,9.912200,-0.007262,0.003146,0.000494,0,0,0,0,0,0
26502,2024,02,28,50240.5980,598700000,2024,2,28,13,57,20,7,0.120683,-0.010068,9.911956,-0.009958,0.003390,0.004759,0,0,0,0,0,0
26503,2024,02,28,50240.6080,608700000,2024,2,28,13,57,20,7,0.120562,0.003308,9.905180,-0.007249,0.001748,0.001567,0,0,0,0,0,0
26504,2024,02,28,50240.6180,618700000,2024,2,28,13,57,20,7,0.118040,-0.008342,9.906585,-0.009454,0.002191,0.000664,0,0,0,0,0,0
26505,2024,02,28,50240.6280,628700000,2024,2,28,13,57,20,7,0.128457,-0.008144,9.905299,-0.008723,0.005619,-0.000503,0,0,0,0,0,0
26506,2024,02,28,50240.6380,638700000,2024,2,28,13,57,20,7,0.124759,0.001671,9.919237,-0.011168,0.002840,-0.000848,0,0,0,0,0,0
26507,2024,02,28,50240.6480,648700000,2024,2,28,13,57,20,7,0.130879,0.001583,9.910069,-0.008462,0.002846,0.001983,0,0,0,0,0,0
26508,2024,02,28,50240.6580,658700000,2024,2,28,13,57,20,7,0.128902,-0.009003,9.906724,-0.008116,0.004767,0.000595,0,0,0,0,0,0
26509,2024,02,28,50240.6680,668700000,2024,2,28,13,57,20,7,0.143176,-0.004025,9.912021,-0.009837,0.000667,0.003691,0,0,0,0,0,0
26510,2024,02,28,50240.6780,678700000,2024,2,28,13,57,20,7,0.125407,-0.013425,9.917596,-0.006526,0.001853,0.003250,0,0,0,0,0,0
26511,2024,02,28,50240.6880,688700000,2024,2,28,13,57,20,7,0.125076,-0.003785,9.896470,-0.011016,0.002887,0.002458,0,0,0,0,0,0
26512,2024,02,28,50240.6980,698700000,2024,2,28,13,57,20,7,0.118008,0.005613,9.918077,-0.008255,-0.000013,0.001443,0,0,0,0,0,0
26513,2024,02,28,50240.7080,708700000,2024,2,28,13,57,20,7,0.091502,-0.004882,9.908709,-0.005659,0.003601,0.002450,8.998664189,38.731211010,0,0,0,0
26514,2024,02,28,50240.7180,718700000,2024,2,28,13,57,20,7,0.108593,-0.005091,9.919853,-0.008943,0.000918,0.000815,0,0,0,0,0,0
26515,2024,02,28,50240.7280,728700000,2024,2,28,13,57,20,7,0.125008,0.003486,9.909516,-0.009342,0.002274,0.003925,0,0,0,0,0,0
26516,2024,02,28,50240.7380,738700000,2024,2,28,13,57,20,7,0.107701,0.007051,9.905479,-0.009779,0.002653,0.001723,0,0,0,0,0,0
26517,2024,02,28,50240.7480,748700000,2024,2,28,13,57,20,7,0.135809,-0.011595,9.906467,-0.011254,0.001440,0.001770,0,0,0,0,0,0
26518,2024,02,28,50240.7580,758700000,2024,2,28,13,57,20,7,0.126303,-0.006501,9.931007,-0.009187,0.002252,0.001692,0,0,0,0,0,0
26519,2024,02,28,50240.7680,768700000,2024,2,28,13,57,20,7,0.132804,-0.015123,9.903580,-0.010600,0.002460,0.000418,0,0,0,0,0,0
26520,2024,02,28,50240.7780,778700000,2024,2,28,13,57,20,7,0.124076,0.006258,9.901665,-0.009241,0.002183,-0.000037,0,0,0,0,0,0
26521,2024,02,28,50240.7880,788700000,2024,2,28,13,57,20,7,0.119868,0.006307,9.918807,-0.008080,0.005859,0.003720,0,0,0,0,0,0
26522,2024,02,28,50240.7980,798700000,2024,2,28,13,57,20,7,0.114792,-0.003269,9.907718,-0.005827,0.002958,0.002174,0,0,0,0,0,0
26523,2024,02,28,50240.8080,808700000,2024,2,28,13,57,20,7,0.135334,-0.027890,9.917860,-0.009618,0.001488,0.001361,0,0,0,0,0,0
26524,2024,02,28,50240.8180,818700000,2024,2,28,13,57,20,7,0.101670,-0.005260,9.906355,-0.010759,0.006131,0.003257,0,0,0,0,0,0
26525,2024,02,28,50240.8280,828700000,2024,2,28,13,57,20,7,0.122153,-0.013336,9.897741,-0.009004,0.001997,0.000417,0,0,0,0,0,0
26526,2024,02,28,50240.8380,838700000,2024,2,28,13,57,20,7,0.119823,-0.007343,9.901980,-0.011624,0.005463,-0.001616,0,0,0,0,0,0
26527,2024,02,28,50240.8480,848700000,2024,2,28,13,57,20,7,0.114860,-0.009357,9.921124,-0.009694,-0.000951,0.002112,0,0,0,0,0,0
26528,2024,02,28,50240.8580,858700000,2024,2,28,13,57,20,7,0.115961,-0.003970,9.915204,-0.009881,0.003454,0.001374,0,0,0,0,0,0
26529,2024,02,28,50240.8680,868700000,2024,2,28,13,57,20,7,0.115029,-0.010373,9.895395,-0.008222,0.001456,0.002476,0,0,0,0,0,0
26530,2024,02,28,50240.8780,878700000,2024,2,28,13,57,20,7,0.133011,-0.011098,9.910936,-0.007976,0.003432,-0.000798,0,0,0,0,0,0
26531,2024,02,28,50240.8880,888700000,2024,2,28,13,57,20,7,0.121322,-0.017914,9.911263,-0.007874,0.002643,-0.001247,0,0,0,0,0,0
26532,2024,02,28,50240.8980,898700000,2024,2,28,13,57,20,7,0.122603,-0.005952,9.919451,-0.008215,0.002084,0.003114,0,0,0,0,0,0
26533,2024,02,28,50240.9080,908700000,2024,2,28,13,57,20,7,0.117616,-0.009348,9.922356,-0.008360,0.003548,0.002366,8.998664501,38.731211132,0,0,0,0
26534,2024,02,28,50240.9180,918700000,2024,2,28,13,57,20,7,0.119784,-0.011283,9.893682,-0.008642,0.004273,0.001506,0,0,0,0,0,0
26535,2024,02,28,50240.9280,928700000,2024,2,28,13,57,20,7,0.099142,-0.005471,9.904417,-0.007750,0.000796,0.000920,0,0,0,0,0,0
26536,2024,02,28,50240.9380,938700000,2024,2,28,13,57,20,7,0.116909,-0.017282,9.916065,-0.006610,0.003114,0.002488,0,0,0,0,0,0
26537,2024,02,28,50240.9480,948700000,2024,2,28,13,57,20,7,0.114052,-0.005334,9.928587,-0.007957,0.001506,0.001415,0,0,0,0,0,0
26538,2024,02,28,50240.9580,958700000,2024,2,28,13,57,20,7,0.144178,-0.015782,9.903502,-0.007806,0.003618,-0.000738,0,0,0,0,0,0
26539,2024,02,28,50240.9680,968700000,2024,2,28,13,57,20,7,0.145300,0.003738,9.925684,-0.009582,0.001096,0.000069,0,0,0,0,0,0
26540,2024,02,28,50240.9780,978700000,2024,2,28,13,57,20,7,0.139645,-0.007962,9.905922,-0.008422,0.001667,0.000121,0,0,0,0,0,0
26541,2024,02,28,50240.9880,988700000,2024,2,28,13,57,20,7,0.132609,-0.004552,9.898709,-0.009278,0.006232,0.001647,0,0,0,0,0,0
26542,2024,02,28,50240.9980,998700000,2024,2,28,13,57,20,7,0.106633,-0.000704,9.918518,-0.010625,0.003992,0.001464,0,0,0,0,0,0
26543,2024,02,28,50241.0080,8700000,2024,2,28,13,57,21,7,0.110386,-0.011236,9.926168,-0.008063,0.003617,-0.001176,0,0,0,0,0,0
26544,2024,02,28,50241.0180,18700000,2024,2,28,13,57,21,7,0.102265,-0.005042,9.898649,-0.008553,0.004264,0.001782,0,0,0,0,0,0
26545,2024,02,28,50241.0280,28700000,2024,2,28,13,57,21,7,0.115389,-0.007338,9.912951,-0.010317,0.003692,0.002590,0,0,0,0,0,0
26546,2024,02,28,50241.0380,38700000,2024,2,28,13,57,21,7,0.124244,-0.005867,9.906069,-0.008912,0.002353,0.001911,0,0,0,0,0,0
26547,2024,02,28,50241.0480,48700000,2024,2,28,13,57,21,7,0.148139,-0.021278,9.914001,-0.009719,0.001472,0.001766,0,0,0,0,0,0
26548,2024,02,28,50241.0580,58700000,2024,2,28,13,57,21,7,0.129654,-0.003730,9.917175,-0.008459,0.002516,0.001705,0,0,0,0,0,0
26549,2024,02,28,50241.0680,68700000,2024,2,28,13,57,21,7,0.124697,0.000322,9.910933,-0.005846,0.002801,0.001226,0,0,0,0,0,0
26550,2024,02,28,50241.0780,78700000,2024,2,28,13,57,21,7,0.124963,0.007193,9.908088,-0.009851,0.004774,0.003608,0,0,0,0,0,0
26551,2024,02,28,50241.0880,88700000,2024,2,28,13,57,21,7,0.108371,-0.001911,9.922454,-0.009402,0.001231,0.002608,0,0,0,0,0,0
26552,2024,02,28,50241.0980,98700000,2024,2,28,13,57,21,7,0.118645,0.000019,9.911205,-0.009261,-0.001317,0.001411,0,0,0,0,0,0
26553,2024,02,28,50241.1080,108700000,2024,2,28,13,57,21,7,0.120795,-0.002057,9.902343,-0.010099,0.003061,-0.000930,8.998664798,38.731211242,0,0,0,0
26554,2024,02,28,50241.1180,118700000,2024,2,28,13,57,21,7,0.110921,-0.001988,9.927591,-0.006210,0.001242,0.002036,0,0,0,0,0,0
26555,2024,02,28,50241.1280,128700000,2024,2,28,13,57,21,7,0.119093,-0.002156,9.907898,-0.007129,0.003631,0.003205,0,0,0,0,0,0
26556,2024,02,28,50241.1380,138700000,2024,2,28,13,57,21,7,0.124272,-0.007427,9.915681,-0.007500,0.004902,0.000777,0,0,0,0,0,0
26557,2024,02,28,50241.1480,148700000,2024,2,28,13,57,21,7,0.116589,0.013183,9.929083,-0.009850,0.003245,0.002575,0,0,0,0,0,0
26558,2024,02,28,50241.1580,158700000,2024,2,28,13,57,21,7,0.111654,-0.004284,9.909574,-0.008164,0.005447,-0.000300,0,0,0,0,0,0
26559,2024,02,28,50241.1680,168700000,2024,2,28,13,57,21,7,0.121953,-0.015514,9.910193,-0.010282,0.002656,0.000088,0,0,0,0,0,0
26560,2024,02,28,50241.1780,178700000,2024,2,28,13,57,21,7,0.125794,-0.008124,9.919735,-0.007392,0.004540,0.000985,0,0,0,0,0,0
26561,2024,02,28,50241.1880,188700000,2024,2,28,13,57,21,7,0.129997,0.001339,9.909465,-0.011540,0.003305,0.002442,0,0,0,0,0,0
26562,2024,02,28,50241.1980,198700000,2024,2,28,13,57,21,7,0.125442,-0.015478,9.909296,-0.008666,0.007052,0.002121,0,0,0,0,0,0
26563,2024,02,28,50241.2080,208700000,2024,2,28,13,57,21,7,0.121486,-0.011384,9.912209,-0.008137,0.003839,0.002006,0,0,0,0,0,0
26564,2024,02,28,50241.2180,218700000,2024,2,28,13,57,21,7,0.108213,-0.006166,9.915938,-0.008912,0.005798,-0.001175,0,0,0,0,0,0
26565,2024,02,28,50241.2280,228700000,2024,2,28,13,57,21,7,0.111062,-0.011666,9.921551,-0.009780,0.004607,0.002176,0,0,0,0,0,0
26566,2024,02,28,50241.2380,238700000,2024,2,28,13,57,21,7,0.117920,-0.006432,9.899341,-0.005522,0.004707,0.000275,0,0,0,0,0,0
26567,2024,02,28,50241.2480,248700000,2024,2,28,13,57,21,7,0.131016,-0.013673,9.909128,-0.007720,0.004216,-0.000073,0,0,0,0,0,0
26568,2024,02,28,50241.2580,258700000,2024,2,28,13,57,21,7,0.118232,0.007633,9.924363,-0.009448,0.004863,-0.000603,0,0,0,0,0,0
26569,2024,02,28,50241.2680,268700000,2024,2,28,13,57,21,7,0.123386,0.003441,9.906647,-0.008314,0.002872,0.001282,0,0,0,0,0,0
26570,2024,02,28,50241.2780,278700000,2024,2,28,13,57,21,7,0.130629,-0.013191,9.927400,-0.009476,0.002393,-0.000785,0,0,0,0,0,0
26571,2024,02,28,50241.2880,288700000,2024,2,28,13,57,21,7,0.114412,0.001049,9.910675,-0.008683,0.002839,0.002232,0,0,0,0,0,0
26572,2024,02,28,50241.2980,298700000,2024,2,28,13,57,21,7,0.130762,-0.005328,9.892160,-0.008014,0.004147,0.002984,0,0,0,0,0,0
26573,2024,02,28,50241.3080,308700000,2024,2,28,13,57,21,7,0.130482,0.003875,9.924533,-0.010535,0.003530,0.001797,8.998664986,38.731211359,0,0,0,0
26574,2024,02,28,50241.3180,318700000,2024,2,28,13,57,21,7,0.119162,0.003825,9.924262,-0.009681,0.002346,0.001647,0,0,0,0,0,0
26575,2024,02,28,50241.3280,328700000,2024,2,28,13,57,21,7,0.109430,-0.009053,9.902789,-0.008702,0.004312,0.001253,0,0,0,0,0,0
26576,2024,02,28,50241.3380,338700000,2024,2,28,13,57,21,7,0.110704,-0.011520,9.899366,-0.010222,0.003407,0.002312,0,0,0,0,0,0
26577,2024,02,28,50241.3480,348700000,2024,2,28,13,57,21,7,0.113626,-0.004562,9.916480,-0.009514,0.001751,0.002774,0,0,0,0,0,0
26578,2024,02,28,50241.3580,358700000,2024,2,28,13,57,21,7,0.117840,-0.005435,9.909065,-0.006485,0.002649,0.000106,0,0,0,0,0,0
26579,2024,02,28,50241.3680,368700000,2024,2,28,13,57,21,7,0.121417,0.003765,9.919192,-0.007982,-0.000696,-0.000391,0,0,0,0,0,0
26580,2024,02,28,50241.3780,378700000,2024,2,28,13,57,21,7,0.132786,-0.010835,9.920664,-0.007851,0.001375,0.002540,0,0,0,0,0,0
26581,2024,02,28,50241.3880,388700000,2024,2,28,13,57,21,7,0.131997,-0.007500,9.928122,-0.009115,0.002716,0.001160,0,0,0,0,0,0
26582,2024,02,28,50241.3980,398700000,2024,2,28,13,57,21,7,0.126489,0.000908,9.924484,-0.007525,0.003645,0.002754,0,0,0,0,0,0
26583,2024,02,28,50241.4080,408700000,2024,2,28,13,57,21,7,0.128838,-0.007637,9.909693,-0.009155,0.003631,-0.001748,0,0,0,0,0,0
26584,2024,02,28,50241.4180,418700000,2024,2,28,13,57,21,7,0.131555,-0.007172,9.907240,-0.010444,0.001912,0.001591,0,0,0,0,0,0
26585,2024,02,28,50241.4280,428700000,2024,2,28,13,57,21,7,0.103684,0.007399,9.913963,-0.008660,0.002738,0.000424,0,0,0,0,0,0
26586,2024,02,28,50241.4380,438700000,2024,2,28,13,57,21,7,0.124422,-0.012992,9.911295,-0.008142,0.004779,0.001751,0,0,0,0,0,0
26587,2024,02,28,50241.4480,448700000,2024,2,28,13,57,21,7,0.112172,-0.006140,9.911961,-0.008710,0.004204,0.000416,0,0,0,0,0,0
26588,2024,02,28,50241.4580,458700000,2024,2,28,13,57,21,7,0.118231,-0.019292,9.917032,-0.008568,0.004885,0.001317,0,0,0,0,0,0
26589,2024,02,28,50241.4680,468700000,2024,2,28,13,57,21,7,0.116719,-0.009936,9.913327,-0.007697,0.003061,0.002292,0,0,0,0,0,0
26590,2024,02,28,50241.4780,478700000,2024,2,28,13,57,21,7,0.138107,0.000790,9.911121,-0.009444,0.001177,0.003843,0,0,0,0,0,0
26591,2024,02,28,50241.4880,488700000,2024,2,28,13,57,21,7,0.119057,0.000945,9.913584,-0.006744,0.001851,0.000446,0,0,0,0,0,0
26592,2024,02,28,50241.4980,498700000,2024,2,28,13,57,21,7,0.121380,0.000517,9.898908,-0.009000,0.001832,0.000965,0,0,0,0,0,0
26593,2024,02,28,50241.5080,508700000,2024,2,28,13,57,21,7,0.120257,-0.027354,9.920382,-0.008691,0.000996,0.001878,8.998665285,38.731211521,0,0,0,0
26594,2024,02,28,50241.5180,518700000,2024,2,28,13,57,21,7,0.118073,-0.005718,9.908115,-0.006667,0.002801,0.002744,0,0,0,0,0,0
26595,2024,02,28,50241.5280,528700000,2024,2,28,13,57,21,7,0.119575,-0.013347,9.903049,-0.010318,0.004563,0.003038,0,0,0,0,0,0
26596,2024,02,28,50241.5380,538700000,2024,2,28,13,57,21,7,0.126984,-0.008187,9.913221,-0.009475,0.002010,0.000639,0,0,0,0,0,0
26597,2024,02,28,50241.5480,548700000,2024,2,28,13,57,21,7,0.127817,0.000128,9.912877,-0.010019,0.002271,0.003992,0,0,0,0,0,0
26598,2024,02,28,50241.5580,558700000,2024,2,28,13,57,21,7,0.126512,-0.014806,9.912157,-0.006261,0.003061,0.000434,0,0,0,0,0,0
26599,2024,02,28,50241.5680,568700000,2024,2,28,13,57,21,7,0.123836,-0.004547,9.922315,-0.007667,0.001877,0.000961,0,0,0,0,0,0
26600,2024,02,28,50241.5780,578700000,2024,2,28,13,57,21,7,0.132978,-0.018980,9.913674,-0.007196,0.001927,0.000477,0,0,0,0,0,0
26601,2024,02,28,50241.5880,588700000,2024,2,28,13,57,21,7,0.132642,-0.001279,9.896809,-0.010483,0.005883,0.002890,0,0,0,0,0,0
26602,2024,02,28,50241.5980,598700000,2024,2,28,13,57,21,7,0.122784,-0.005919,9.918504,-0.010664,0.002358,0.002247,0,0,0,0,0,0
26603,2024,02,28,50241.6080,608700000,2024,2,28,13,57,21,7,0.129086,-0.016909,9.920504,-0.006377,0.003681,-0.000070,0,0,0,0,0,0
26604,2024,02,28,50241.6180,618700000,2024,2,28,13,57,21,7,0.122258,-0.008325,9.895967,-0.008763,0.002675,0.002659,0,0,0,0,0,0
26605,2024,02,28,50241.6280,628700000,2024,2,28,13,57,21,7,0.127343,-0.006904,9.904807,-0.007381,0.003772,0.002786,0,0,0,0,0,0
26606,2024,02,28,50241.6380,638700000,2024,2,28,13,57,21,7,0.112824,-0.013309,9.917186,-0.009822,0.001212,0.000864,0,0,0,0,0,0
26607,2024,02,28,50241.6480,648700000,2024,2,28,13,57,21,7,0.111152,0.000417,9.924506,-0.008533,0.002777,0.000910,0,0,0,0,0,0
26608,2024,02,28,50241.6580,658700000,2024,2,28,13,57,21,7,0.121613,-0.014357,9.914704,-0.009562,0.001860,0.002481,0,0,0,0,0,0
26609,2024,02,28,50241.6680,668700000,2024,2,28,13,57,21,7,0.128921,-0.014878,9.904840,-0.007912,0.003816,0.000916,0,0,0,0,0,0
26610,2024,02,28,50241.6780,678700000,2024,2,28,13,57,21,7,0.125543,-0.006494,9.901106,-0.009257,0.003911,-0.000686,0,0,0,0,0,0
26611,2024,02,28,50241.6880,688700000,2024,2,28,13,57,21,7,0.123887,0.006825,9.915071,-0.006931,0.000245,0.001784,0,0,0,0,0,0
26612,2024,02,28,50241.6980,698700000,2024,2,28,13,57,21,7,0.122871,-0.010030,9.920527,-0.008760,0.005459,0.002760,0,0,0,0,0,0
26613,2024,02,28,50241.7080,708700000,2024,2,28,13,57,21,7,0.119822,-0.012456,9.915620,-0.009577,-0.000117,0.002264,8.998665600,38.731211677,0,0,0,0
26614,2024,02,28,50241.7180,718700000,2024,2,28,13,57,21,7,0.116996,0.002165,9.906201,-0.009966,0.001458,0.003278,0,0,0,0,0,0
26615,2024,02,28,50241.7280,728700000,2024,2,28,13,57,21,7,0.117349,-0.006098,9.907992,-0.010433,-0.000876,0.001242,0,0,0,0,0,0
26616,2024,02,28,50241.7380,738700000,2024,2,28,13,57,21,7,0.111715,-0.007611,9.917053,-0.008501,0.002373,0.001005,0,0,0,0,0,0
26617,2024,02,28,50241.7480,748700000,2024,2,28,13,57,21,7,0.114724,0.005698,9.896673,-0.008328,0.003092,0.001797,0,0,0,0,0,0
26618,2024,02,28,50241.7580,758700000,2024,2,28,13,57,21,7,0.110799,0.003133,9.909203,-0.010170,0.004865,0.001366,0,0,0,0,0,0
26619,2024,02,28,50241.7680,768700000,2024,2,28,13,57,21,7,0.133180,-0.009925,9.902520,-0.009833,0.004042,0.000439,0,0,0,0,0,0
26620,2024,02,28,50241.7780,778700000,2024,2,28,13,57,21,7,0.127626,-0.016371,9.916915,-0.009296,0.001151,-0.000070,0,0,0,0,0,0
26621,2024,02,28,50241.7880,788700000,2024,2,28,13,57,21,7,0.132949,-0.011938,9.914615,-0.009933,0.004449,0.001309,0,0,0,0,0,0
26622,2024,02,28,50241.7980,798700000,2024,2,28,13,57,21,7,0.130241,-0.017078,9.902843,-0.007959,0.004844,0.003078,0,0,0,0,0,0
26623,2024,02,28,50241.8080,808700000,2024,2,28,13,57,21,7,0.117347,-0.015563,9.915240,-0.009237,0.003743,0.003526,0,0,0,0,0,0
26624,2024,02,28,50241.8180,818700000,2024,2,28,13,57,21,7,0.119584,-0.012455,9.924044,-0.009110,0.003368,0.001236,0,0,0,0,0,0
26625,2024,02,28,50241.8280,828700000,2024,2,28,13,57,21,7,0.126476,-0.012163,9.926035,-0.008551,0.004378,0.001226,0,0,0,0,0,0
26626,2024,02,28,50241.8380,838700000,2024,2,28,13,57,21,7,0.120016,-0.011940,9.899374,-0.006424,0.001915,-0.000090,0,0,0,0,0,0
26627,2024,02,28,50241.8480,848700000,2024,2,28,13,57,21,7,0.139036,0.002399,9.909823,-0.009961,0.004955,-0.000021,0,0,0,0,0,0
26628,2024,02,28,50241.8580,858700000,2024,2,28,13,57,21,7,0.123787,-0.004156,9.907964,-0.009056,0.005363,0.002747,0,0,0,0,0,0
26629,2024,02,28,50241.8680,868700000,2024,2,28,13,57,21,7,0.121570,0.001168,9.908518,-0.009655,0.002447,0.003365,0,0,0,0,0,0
26630,2024,02,28,50241.8780,878700000,2024,2,28,13,57,21,7,0.106873,0.002628,9.905110,-0.010224,0.004347,0.002089,0,0,0,0,0,0
26631,2024,02,28,50241.8880,888700000,2024,2,28,13,57,21,7,0.121080,-0.021620,9.939247,-0.007621,0.001823,0.001323,0,0,0,0,0,0
26632,2024,02,28,50241.8980,898700000,2024,2,28,13,57,21,7,0.119459,0.001267,9.878361,-0.010002,-0.000000,0.001419,0,0,0,0,0,0
26633,2024,02,28,50241.9080,908700000,2024,2,28,13,57,21,7,0.131496,-0.000933,9.922059,-0.006090,0.001105,0.001619,8.998665918,38.731211826,0,0,0,0
26634,2024,02,28,50241.9180,918700000,2024,2,28,13,57,21,7,0.114373,0.004044,9.929291,-0.008585,0.002474,0.000241,0,0,0,0,0,0
26635,2024,02,28,50241.9280,928700000,2024,2,28,13,57,21,7,0.123659,-0.000495,9.864301,-0.008619,0.001692,-0.001000,0,0,0,0,0,0
26636,2024,02,28,50241.9380,938700000,2024,2,28,13,57,21,7,0.127810,-0.010554,9.959506,-0.011426,0.002662,0.003851,0,0,0,0,0,0
26637,2024,02,28,50241.9480,948700000,2024,2,28,13,57,21,7,0.126529,0.013231,9.879750,-0.008154,0.001475,0.002385,0,0,0,0,0,0
26638,2024,02,28,50241.9580,958700000,2024,2,28,13,57,21,7,0.124823,-0.010574,9.915810,-0.007310,0.000025,0.000946,0,0,0,0,0,0
26639,2024,02,28,50241.9680,968700000,2024,2,28,13,57,21,7,0.123204,-0.019578,9.979378,-0.011200,0.004664,-0.001122,0,0,0,0,0,0
26640,2024,02,28,50241.9780,978700000,2024,2,28,13,57,21,7,0.112201,0.003693,9.823453,-0.009398,0.002900,0.001302,0,0,0,0,0,0
26641,2024,02,28,50241.9880,988700000,2024,2,28,13,57,21,7,0.112342,-0.005968,9.981354,-0.007518,0.004521,0.000721,0,0,0,0,0,0
26642,2024,02,28,50241.9980,998700000,2024,2,28,13,57,21,7,0.121762,-0.004766,9.906391,-0.010685,0.003596,-0.000648,0,0,0,0,0,0
26643,2024,02,28,50242.0080,8700000,2024,2,28,13,57,22,7,0.110120,0.003833,9.863522,-0.012381,0.002606,0.000689,0,0,0,0,0,0
26644,2024,02,28,50242.0180,18700000,2024,2,28,13,57,22,7,0.129333,-0.024535,9.985155,-0.007815,0.000431,0.001785,0,0,0,0,0,0
26645,2024,02,28,50242.0280,28700000,2024,2,28,13,57,22,7,0.109368,0.008310,9.834324,-0.007879,0.003150,0.001324,0,0,0,0,0,0
26646,2024,02,28,50242.0380,38700000,2024,2,28,13,57,22,7,0.144168,-0.033070,9.963655,-0.007958,0.000720,0.004328,0,0,0,0,0,0
26647,2024,02,28,50242.0480,48700000,2024,2,28,13,57,22,7,0.109745,-0.003507,9.914294,-0.008737,0.002504,-0.001225,0,0,0,0,0,0
26648,2024,02,28,50242.0580,58700000,2024,2,28,13,57,22,7,0.135662,-0.016681,9.849536,-0.010965,0.004015,0.004559,0,0,0,0,0,0
26649,2024,02,28,50242.0680,68700000,2024,2,28,13,57,22,7,0.116374,-0.010225,9.959709,-0.006836,0.003318,0.000617,0,0,0,0,0,0
26650,2024,02,28,50242.0780,78700000,2024,2,28,13,57,22,7,0.137538,-0.015711,9.879456,-0.009016,0.005753,0.003103,0,0,0,0,0,0
26651,2024,02,28,50242.0880,88700000,2024,2,28,13,57,22,7,0.132281,-0.020629,9.905005,-0.005779,0.005365,0.001491,0,0,0,0,0,0
26652,2024,02,28,50242.0980,98700000,2024,2,28,13,57,22,7,0.113113,0.005863,9.944577,-0.009505,0.003353,0.000782,0,0,0,0,0,0
26653,2024,02,28,50242.1080,108700000,2024,2,28,13,57,22,7,0.127320,-0.011399,9.862932,-0.010786,0.002497,0.000719,8.998666142,38.731211933,0,0,0,0
26654,2024,02,28,50242.1180,118700000,2024,2,28,13,57,22,7,0.129350,-0.016139,9.931059,-0.006882,0.001691,0.001586,0,0,0,0,0,0
26655,2024,02,28,50242.1280,128700000,2024,2,28,13,57,22,7,0.113409,0.004578,9.894404,-0.008036,0.001213,0.002933,0,0,0,0,0,0
26656,2024,02,28,50242.1380,138700000,2024,2,28,13,57,22,7,0.114158,-0.016103,9.897161,-0.011484,0.004527,0.002122,0,0,0,0,0,0
26657,2024,02,28,50242.1480,148700000,2024,2,28,13,57,22,7,0.114820,0.006858,9.938671,-0.005006,0.002468,0.004052,0,0,0,0,0,0
26658,2024,02,28,50242.1580,158700000,2024,2,28,13,57,22,7,0.115729,-0.012630,9.879387,-0.009659,0.001470,0.002453,0,0,0,0,0,0
26659,2024,02,28,50242.1680,168700000,2024,2,28,13,57,22,7,0.121521,-0.008237,9.944945,-0.008631,0.001820,0.001340,0,0,0,0,0,0
26660,2024,02,28,50242.1780,178700000,2024,2,28,13,57,22,7,0.132306,-0.012870,9.907611,-0.010552,0.004728,0.001245,0,0,0,0,0,0
26661,2024,02,28,50242.1880,188700000,2024,2,28,13,57,22,7,0.130486,-0.016914,9.903074,-0.009737,-0.000649,0.002408,0,0,0,0,0,0
26662,2024,02,28,50242.1980,198700000,2024,2,28,13,57,22,7,0.117587,-0.010304,9.934337,-0.006416,0.006169,0.002998,0,0,0,0,0,0
26663,2024,02,28,50242.2080,208700000,2024,2,28,13,57,22,7,0.122462,-0.015028,9.874021,-0.007116,0.001026,0.003446,0,0,0,0,0,0
26664,2024,02,28,50242.2180,218700000,2024,2,28,13,57,22,7,0.118339,-0.014623,9.951783,-0.008028,0.004639,-0.000587,0,0,0,0,0,0
26665,2024,02,28,50242.2280,228700000,2024,2,28,13,57,22,7,0.109893,-0.005245,9.901958,-0.008857,0.002334,0.003145,0,0,0,0,0,0
26666,2024,02,28,50242.2380,238700000,2024,2,28,13,57,22,7,0.134768,-0.034073,9.915012,-0.010326,0.002247,0.004664,0,0,0,0,0,0
26667,2024,02,28,50242.2480,248700000,2024,2,28,13,57,22,7,0.122096,0.000773,9.918375,-0.008981,0.005101,0.000860,0,0,0,0,0,0
26668,2024,02,28,50242.2580,258700000,2024,2,28,13,57,22,7,0.111499,-0.010145,9.903172,-0.009493,0.001553,0.002839,0,0,0,0,0,0
26669,2024,02,28,50242.2680,268700000,2024,2,28,13,57,22,7,0.123093,-0.004017,9.923368,-0.007906,0.004453,0.002797,0,0,0,0,0,0
26670,2024,02,28,50242.2780,278700000,2024,2,28,13,57,22,7,0.119134,0.003559,9.899706,-0.009081,0.004646,0.000023,0,0,0,0,0,0
26671,2024,02,28,50242.2880,288700000,2024,2,28,13,57,22,7,0.121885,0.002431,9.909706,-0.007157,0.004777,0.002356,0,0,0,0,0,0
26672,2024,02,28,50242.2980,298700000,2024,2,28,13,57,22,7,0.109110,0.001976,9.905857,-0.007875,-0.000035,0.001321,0,0,0,0,0,0
26673,2024,02,28,50242.3080,308700000,2024,2,28,13,57,22,7,0.100177,-0.005507,9.913095,-0.007313,0.001909,-0.000866,8.998665932,38.731211809,0,0,0,0
26674,2024,02,28,50242.3180,318700000,2024,2,28,13,57,22,7,0.127887,-0.020780,9.920717,-0.008735,0.001815,0.001918,0,0,0,0,0,0
26675,2024,02,28,50242.3280,328700000,2024,2,28,13,57,22,7,0.127609,0.003355,9.905752,-0.008805,0.000715,0.001442,0,0,0,0,0,0
26676,2024,02,28,50242.3380,338700000,2024,2,28,13,57,22,7,0.133509,-0.012409,9.908570,-0.009098,0.000702,0.002381,0,0,0,0,0,0
26677,2024,02,28,50242.3480,348700000,2024,2,28,13,57,22,7,0.122013,-0.011034,9.896790,-0.007670,0.002812,0.002296,0,0,0,0,0,0
26678,2024,02,28,50242.3580,358700000,2024,2,28,13,57,22,7,0.117922,-0.010055,9.912278,-0.006783,0.002466,0.000127,0,0,0,0,0,0
26679,2024,02,28,50242.3680,368700000,2024,2,28,13,57,22,7,0.119445,-0.018766,9.923689,-0.008623,0.002180,0.000713,0,0,0,0,0,0
26680,2024,02,28,50242.3780,378700000,2024,2,28,13,57,22,7,0.129746,0.000298,9.904834,-0.007693,0.002401,0.004981,0,0,0,0,0,0
26681,2024,02,28,50242.3880,388700000,2024,2,28,13,57,22,7,0.116424,-0.002385,9.919253,-0.010479,0.004006,0.002512,0,0,0,0,0,0
26682,2024,02,28,50242.3980,398700000,2024,2,28,13,57,22,7,0.115713,0.009510,9.904162,-0.008304,0.003586,0.002243,0,0,0,0,0,0
26683,2024,02,28,50242.4080,408700000,2024,2,28,13,57,22,7,0.121666,-0.012684,9.909363,-0.009030,0.002386,0.000977,0,0,0,0,0,0
26684,2024,02,28,50242.4180,418700000,2024,2,28,13,57,22,7,0.114506,-0.000135,9.914005,-0.010467,0.004619,0.001743,0,0,0,0,0,0
26685,2024,02,28,50242.4280,428700000,2024,2,28,13,57,22,7,0.117791,-0.019937,9.905281,-0.009012,0.005390,0.001951,0,0,0,0,0,0
26686,2024,02,28,50242.4380,438700000,2024,2,28,13,57,22,7,0.124480,-0.008774,9.917936,-0.008722,0.004251,0.001818,0,0,0,0,0,0
26687,2024,02,28,50242.4480,448700000,2024,2,28,13,57,22,7,0.117604,-0.000040,9.903245,-0.007564,0.002485,0.001017,0,0,0,0,0,0
26688,2024,02,28,50242.4580,458700000,2024,2,28,13,57,22,7,0.127302,-0.005933,9.914658,-0.007256,0.004209,0.000392,0,0,0,0,0,0
26689,2024,02,28,50242.4680,468700000,2024,2,28,13,57,22,7,0.122205,-0.008393,9.907708,-0.009322,0.004641,0.002690,0,0,0,0,0,0
26690,2024,02,28,50242.4780,478700000,2024,2,28,13,57,22,7,0.121807,-0.012331,9.902604,-0.009410,0.002911,0.001019,0,0,0,0,0,0
26691,2024,02,28,50242.4880,488700000,2024,2,28,13,57,22,7,0.125771,0.000033,9.909768,-0.006825,0.005648,0.003763,0,0,0,0,0,0
26692,2024,02,28,50242.4980,498700000,2024,2,28,13,57,22,7,0.118033,0.004282,9.931597,-0.007043,0.003089,0.000479,0,0,0,0,0,0
26693,2024,02,28,50242.5080,508700000,2024,2,28,13,57,22,7,0.110606,-0.002788,9.913947,-0.012312,0.002992,0.001292,8.998665677,38.731211716,0,0,0,0
26694,2024,02,28,50242.5180,518700000,2024,2,28,13,57,22,7,0.117023,-0.004788,9.907628,-0.009340,0.002216,0.001537,0,0,0,0,0,0
26695,2024,02,28,50242.5280,528700000,2024,2,28,13,57,22,7,0.132532,-0.016561,9.903699,-0.007423,-0.000351,0.002943,0,0,0,0,0,0
26696,2024,02,28,50242.5380,538700000,2024,2,28,13,57,22,7,0.129156,-0.019472,9.925013,-0.010684,0.003088,0.001240,0,0,0,0,0,0
26697,2024,02,28,50242.5480,548700000,2024,2,28,13,57,22,7,0.132501,-0.009498,9.910929,-0.008747,0.001453,0.003587,0,0,0,0,0,0
26698,2024,02,28,50242.5580,558700000,2024,2,28,13,57,22,7,0.132260,-0.006646,9.921009,-0.007346,0.004356,0.001078,0,0,0,0,0,0
26699,2024,02,28,50242.5680,568700000,2024,2,28,13,57,22,7,0.111719,0.000806,9.905776,-0.010109,0.003318,-0.000107,0,0,0,0,0,0
26700,2024,02,28,50242.5780,578700000,2024,2,28,13,57,22,7,0.124999,0.002749,9.904768,-0.007267,0.003326,0.003225,0,0,0,0,0,0
26701,2024,02,28,50242.5880,588700000,2024,2,28,13,57,22,7,0.127989,-0.013508,9.894503,-0.009670,0.005438,0.001873,0,0,0,0,0,0
26702,2024,02,28,50242.5980,598700000,2024,2,28,13,57,22,7,0.117479,-0.001005,9.908470,-0.009732,0.004721,-0.000354,0,0,0,0,0,0
26703,2024,02,28,50242.6080,608700000,2024,2,28,13,57,22,7,0.117574,0.004517,9.908458,-0.008414,0.002366,0.000784,0,0,0,0,0,0
26704,2024,02,28,50242.6180,618700000,2024,2,28,13,57,22,7,0.124248,-0.002389,9.931927,-0.007965,0.003372,-0.001174,0,0,0,0,0,0
26705,2024,02,28,50242.6280,628700000,2024,2,28,13,57,22,7,0.120558,-0.017362,9.913625,-0.008094,0.003192,0.004459,0,0,0,0,0,0
26706,2024,02,28,50242.6380,638700000,2024,2,28,13,57,22,7,0.117237,0.002428,9.917113,-0.009672,0.002552,0.003095,0,0,0,0,0,0
26707,2024,02,28,50242.6480,648700000,2024,2,28,13,57,22,7,0.115159,0.003080,9.911518,-0.007633,0.005091,0.002772,0,0,0,0,0,0
26708,2024,02,28,50242.6580,658700000,2024,2,28,13,57,22,7,0.131223,-0.003884,9.920163,-0.009587,0.001749,0.002493,0,0,0,0,0,0
26709,2024,02,28,50242.6680,668700000,2024,2,28,13,57,22,7,0.121925,-0.014106,9.925858,-0.010297,0.004267,0.000231,0,0,0,0,0,0
26710,2024,02,28,50242.6780,678700000,2024,2,28,13,57,22,7,0.132666,-0.020524,9.907027,-0.008576,0.003121,0.002278,0,0,0,0,0,0
26711,2024,02,28,50242.6880,688700000,2024,2,28,13,57,22,7,0.119097,-0.008274,9.903275,-0.009011,0.003677,0.001338,0,0,0,0,0,0
26712,2024,02,28,50242.6980,698700000,2024,2,28,13,57,22,7,0.115195,0.007315,9.914713,-0.006789,0.001422,0.000957,0,0,0,0,0,0
26713,2024,02,28,50242.7080,708700000,2024,2,28,13,57,22,7,0.118654,-0.014415,9.916082,-0.007072,0.003543,0.001334,8.998665488,38.731211634,0,0,0,0
26714,2024,02,28,50242.7180,718700000,2024,2,28,13,57,22,7,0.115203,0.007165,9.911870,-0.006998,0.001867,0.003887,0,0,0,0,0,0
26715,2024,02,28,50242.7280,728700000,2024,2,28,13,57,22,7,0.112061,-0.004579,9.913491,-0.008341,0.002004,0.003361,0,0,0,0,0,0
26716,2024,02,28,50242.7380,738700000,2024,2,28,13,57,22,7,0.126262,-0.007502,9.918557,-0.007870,0.002776,0.002075,0,0,0,0,0,0
26717,2024,02,28,50242.7480,748700000,2024,2,28,13,57,22,7,0.122280,-0.013730,9.906528,-0.010682,0.004915,0.003174,0,0,0,0,0,0
26718,2024,02,28,50242.7580,758700000,2024,2,28,13,57,22,7,0.110459,0.003445,9.909673,-0.005822,0.005657,-0.000295,0,0,0,0,0,0
26719,2024,02,28,50242.7680,768700000,2024,2,28,13,57,22,7,0.113756,0.004633,9.910183,-0.010930,0.004150,0.003367,0,0,0,0,0,0
26720,2024,02,28,50242.7780,778700000,2024,2,28,13,57,22,7,0.121016,0.000255,9.910173,-0.009603,0.003417,0.001685,0,0,0,0,0,0
26721,2024,02,28,50242.7880,788700000,2024,2,28,13,57,22,7,0.109401,0.002085,9.913456,-0.006878,0.005209,0.002067,0,0,0,0,0,0
26722,2024,02,28,50242.7980,798700000,2024,2,28,13,57,22,7,0.117396,-0.006311,9.915588,-0.009298,0.001612,0.002072,0,0,0,0,0,0
26723,2024,02,28,50242.8080,808700000,2024,2,28,13,57,22,7,0.107572,0.008527,9.909032,-0.007363,0.002723,0.005659,0,0,0,0,0,0
26724,2024,02,28,50242.8180,818700000,2024,2,28,13,57,22,7,0.120981,-0.010090,9.925244,-0.008415,0.003646,0.001866,0,0,0,0,0,0
26725,2024,02,28,50242.8280,828700000,2024,2,28,13,57,22,7,0.125779,-0.008832,9.907636,-0.010085,0.003586,-0.001729,0,0,0,0,0,0
26726,2024,02,28,50242.8380,838700000,2024,2,28,13,57,22,7,0.112147,-0.006180,9.919314,-0.008442,0.005204,0.000653,0,0,0,0,0,0
26727,2024,02,28,50242.8480,848700000,2024,2,28,13,57,22,7,0.130753,-0.011605,9.922414,-0.009571,0.003614,0.003758,0,0,0,0,0,0
26728,2024,02,28,50242.8580,858700000,2024,2,28,13,57,22,7,0.118127,-0.000084,9.911198,-0.008444,0.004993,0.001823,0,0,0,0,0,0
26729,2024,02,28,50242.8680,868700000,2024,2,28,13,57,22,7,0.136364,-0.017812,9.914548,-0.009504,0.003635,0.001186,0,0,0,0,0,0
26730,2024,02,28,50242.8780,878700000,2024,2,28,13,57,22,7,0.125568,-0.003789,9.905969,-0.009425,0.002896,0.001111,0,0,0,0,0,0
26731,2024,02,28,50242.8880,888700000,2024,2,28,13,57,22,7,0.119705,-0.003944,9.907552,-0.008820,0.002445,0.003109,0,0,0,0,0,0
26732,2024,02,28,50242.8980,898700000,2024,2,28,13,57,22,7,0.116875,-0.013368,9.920445,-0.011299,0.001588,0.000706,0,0,0,0,0,0
26733,2024,02,28,50242.9080,908700000,2024,2,28,13,57,22,7,0.099741,0.005331,9.901337,-0.009076,0.002474,0.002767,8.998665490,38.731211627,0,0,0,0
26734,2024,02,28,50242.9180,918700000,2024,2,28,13,57,22,7,0.109090,0.007755,9.909292,-0.009633,0.001074,0.001374,0,0,0,0,0,0
26735,2024,02,28,50242.9280,928700000,2024,2,28,13,57,22,7,0.114663,0.000836,9.912455,-0.008356,0.003869,0.001226,0,0,0,0,0,0
26736,2024,02,28,50242.9380,938700000,2024,2,28,13,57,22,7,0.118548,-0.003587,9.910975,-0.010518,0.003356,-0.000838,0,0,0,0,0,0
26737,2024,02,28,50242.9480,948700000,2024,2,28,13,57,22,7,0.125807,-0.004202,9.905145,-0.009024,0.001756,0.003319,0,0,0,0,0,0
26738,2024,02,28,50242.9580,958700000,2024,2,28,13,57,22,7,0.122351,-0.011075,9.914948,-0.009141,0.000826,0.002918,0,0,0,0,0,0
26739,2024,02,28,50242.9680,968700000,2024,2,28,13,57,22,7,0.119120,0.005656,9.902673,-0.008816,0.001469,0.001666,0,0,0,0,0,0
26740,2024,02,28,50242.9780,978700000,2024,2,28,13,57,22,7,0.118242,0.008105,9.902177,-0.009937,0.002565,0.002161,0,0,0,0,0,0
26741,2024,02,28,50242.9880,988700000,2024,2,28,13,57,22,7,0.118800,-0.003632,9.924259,-0.006931,0.002033,0.000190,0,0,0,0,0,0
26742,2024,02,28,50242.9980,998700000,2024,2,28,13,57,22,7,0.114957,-0.019361,9.909510,-0.009338,0.001374,0.002668,0,0,0,0,0,0
26743,2024,02,28,50243.0080,8700000,2024,2,28,13,57,23,7,0.117000,-0.015271,9.913926,-0.008160,0.003254,0.001542,0,0,0,0,0,0
26744,2024,02,28,50243.0180,18700000,2024,2,28,13,57,23,7,0.123458,-0.008869,9.914129,-0.010399,0.001932,0.002075,0,0,0,0,0,0
26745,2024,02,28,50243.0280,28700000,2024,2,28,13,57,23,7,0.130024,-0.001506,9.911246,-0.009592,0.006236,0.003051,0,0,0,0,0,0
26746,2024,02,28,50243.0380,38700000,2024,2,28,13,57,23,7,0.135926,-0.016007,9.920343,-0.009952,0.000389,0.000979,0,0,0,0,0,0
26747,2024,02,28,50243.0480,48700000,2024,2,28,13,57,23,7,0.125729,-0.005650,9.919615,-0.008565,0.000057,-0.000629,0,0,0,0,0,0
26748,2024,02,28,50243.0580,58700000,2024,2,28,13,57,23,7,0.108585,-0.005229,9.909533,-0.009282,0.002661,-0.000244,0,0,0,0,0,0
26749,2024,02,28,50243.0680,68700000,2024,2,28,13,57,23,7,0.116187,-0.000398,9.918763,-0.007710,0.002241,0.000377,0,0,0,0,0,0
26750,2024,02,28,50243.0780,78700000,2024,2,28,13,57,23,7,0.138492,-0.012829,9.919556,-0.009198,0.001040,0.001425,0,0,0,0,0,0
26751,2024,02,28,50243.0880,88700000,2024,2,28,13,57,23,7,0.125703,-0.004898,9.908581,-0.010359,0.004042,-0.000017,0,0,0,0,0,0
26752,2024,02,28,50243.0980,98700000,2024,2,28,13,57,23,7,0.114810,0.001859,9.917915,-0.006945,0.001206,0.002317,0,0,0,0,0,0
26753,2024,02,28,50243.1080,108700000,2024,2,28,13,57,23,7,0.116042,-0.000373,9.921726,-0.007395,0.002698,0.000154,8.998665814,38.731211791,0,0,0,0
26754,2024,02,28,50243.1180,118700000,2024,2,28,13,57,23,7,0.104326,-0.002641,9.915165,-0.009554,0.004760,0.002312,0,0,0,0,0,0
26755,2024,02,28,50243.1280,128700000,2024,2,28,13,57,23,7,0.118268,-0.009645,9.911210,-0.007598,0.000621,0.003590,0,0,0,0,0,0
26756,2024,02,28,50243.1380,138700000,2024,2,28,13,57,23,7,0.115594,-0.008435,9.931695,-0.007803,0.002796,0.000452,0,0,0,0,0,0
26757,2024,02,28,50243.1480,148700000,2024,2,28,13,57,23,7,0.132075,-0.015080,9.923863,-0.008542,0.005072,0.003230,0,0,0,0,0,0
26758,2024,02,28,50243.1580,158700000,2024,2,28,13,57,23,7,0.130469,-0.008833,9.910308,-0.011230,0.003265,0.001443,0,0,0,0,0,0
26759,2024,02,28,50243.1680,168700000,2024,2,28,13,57,23,7,0.122369,-0.006022,9.930002,-0.010745,-0.001472,0.004412,0,0,0,0,0,0
26760,2024,02,28,50243.1780,178700000,2024,2,28,13,57,23,7,0.117688,-0.009003,9.923186,-0.007403,0.000786,0.002805,0,0,0,0,0,0
26761,2024,02,28,50243.1880,188700000,2024,2,28,13,57,23,7,0.125913,-0.004807,9.922698,-0.009343,0.003947,-0.000333,0,0,0,0,0,0
26762,2024,02,28,50243.1980,198700000,2024,2,28,13,57,23,7,0.120534,-0.004039,9.911351,-0.009502,0.002081,0.000885,0,0,0,0,0,0
26763,2024,02,28,50243.2080,208700000,2024,2,28,13,57,23,7,0.115178,-0.003853,9.894912,-0.008018,0.006827,0.003601,0,0,0,0,0,0
26764,2024,02,28,50243.2180,218700000,2024,2,28,13,57,23,7,0.117555,-0.007418,9.909302,-0.005540,0.004875,0.003843,0,0,0,0,0,0
26765,2024,02,28,50243.2280,228700000,2024,2,28,13,57,23,7,0.123893,-0.007404,9.925875,-0.008187,0.002221,0.002408,0,0,0,0,0,0
26766,2024,02,28,50243.2380,238700000,2024,2,28,13,57,23,7,0.115896,-0.007705,9.912007,-0.011281,0.001203,0.001599,0,0,0,0,0,0
26767,2024,02,28,50243.2480,248700000,2024,2,28,13,57,23,7,0.132068,-0.015691,9.916978,-0.009011,0.000425,0.003328,0,0,0,0,0,0
26768,2024,02,28,50243.2580,258700000,2024,2,28,13,57,23,7,0.122413,-0.013649,9.917674,-0.009182,0.002067,-0.000085,0,0,0,0,0,0
26769,2024,02,28,50243.2680,268700000,2024,2,28,13,57,23,7,0.116559,0.003177,9.911296,-0.007855,0.002956,0.000763,0,0,0,0,0,0
26770,2024,02,28,50243.2780,278700000,2024,2,28,13,57,23,7,0.121200,0.005730,9.922506,-0.009180,0.002518,0.001238,0,0,0,0,0,0
26771,2024,02,28,50243.2880,288700000,2024,2,28,13,57,23,7,0.116404,-0.004075,9.908450,-0.008649,0.004586,0.001080,0,0,0,0,0,0
26772,2024,02,28,50243.2980,298700000,2024,2,28,13,57,23,7,0.130465,0.005436,9.909107,-0.010213,0.003839,0.002946,0,0,0,0,0,0
26773,2024,02,28,50243.3080,308700000,2024,2,28,13,57,23,7,0.124889,-0.005601,9.922096,-0.008166,0.003219,0.003212,8.998665668,38.731211744,0,0,0,0
26774,2024,02,28,50243.3180,318700000,2024,2,28,13,57,23,7,0.120556,-0.010620,9.899501,-0.009992,0.004968,0.001597,0,0,0,0,0,0
26775,2024,02,28,50243.3280,328700000,2024,2,28,13,57,23,7,0.134431,0.000651,9.915932,-0.009862,0.004682,0.001271,0,0,0,0,0,0
26776,2024,02,28,50243.3380,338700000,2024,2,28,13,57,23,7,0.123647,0.000672,9.919339,-0.008842,0.002792,0.000503,0,0,0,0,0,0
26777,2024,02,28,50243.3480,348700000,2024,2,28,13,57,23,7,0.127353,-0.005267,9.907651,-0.009470,0.001207,0.002077,0,0,0,0,0,0
26778,2024,02,28,50243.3580,358700000,2024,2,28,13,57,23,7,0.126828,-0.023555,9.912999,-0.008449,0.002585,0.002171,0,0,0,0,0,0
26779,2024,02,28,50243.3680,368700000,2024,2,28,13,57,23,7,0.117650,0.001588,9.915583,-0.009966,0.003906,0.000902,0,0,0,0,0,0
26780,2024,02,28,50243.3780,378700000,2024,2,28,13,57,23,7,0.121706,-0.020043,9.917082,-0.007439,0.004676,0.003181,0,0,0,0,0,0
26781,2024,02,28,50243.3880,388700000,2024,2,28,13,57,23,7,0.128022,-0.015775,9.926770,-0.008203,0.001962,-0.001131,0,0,0,0,0,0
26782,2024,02,28,50243.3980,398700000,2024,2,28,13,57,23,7,0.108271,-0.000370,9.915336,-0.006821,0.004444,0.001277,0,0,0,0,0,0
26783,2024,02,28,50243.4080,408700000,2024,2,28,13,57,23,7,0.123188,-0.016234,9.910579,-0.008381,0.002515,-0.000495,0,0,0,0,0,0
26784,2024,02,28,50243.4180,418700000,2024,2,28,13,57,23,7,0.134823,-0.020614,9.905633,-0.008074,-0.001752,0.001708,0,0,0,0,0,0
26785,2024,02,28,50243.4280,428700000,2024,2,28,13,57,23,7,0.123375,-0.004123,9.921359,-0.010508,0.002869,0.000882,0,0,0,0,0,0
26786,2024,02,28,50243.4380,438700000,2024,2,28,13,57,23,7,0.119655,-0.003654,9.916330,-0.006859,0.005680,0.002609,0,0,0,0,0,0
26787,2024,02,28,50243.4480,448700000,2024,2,28,13,57,23,7,0.124406,-0.010033,9.911173,-0.008815,0.001602,0.000264,0,0,0,0,0,0
26788,2024,02,28,50243.4580,458700000,2024,2,28,13,57,23,7,0.116301,-0.011378,9.902291,-0.008223,0.007728,0.002349,0,0,0,0,0,0
26789,2024,02,28,50243.4680,468700000,2024,2,28,13,57,23,7,0.125405,-0.005185,9.920794,-0.008952,0.001965,0.002414,0,0,0,0,0,0
26790,2024,02,28,50243.4780,478700000,2024,2,28,13,57,23,7,0.124711,-0.008109,9.905478,-0.010733,-0.000573,0.000848,0,0,0,0,0,0
26791,2024,02,28,50243.4880,488700000,2024,2,28,13,57,23,7,0.121434,-0.002461,9.897603,-0.009621,0.001803,0.003573,0,0,0,0,0,0
26792,2024,02,28,50243.4980,498700000,2024,2,28,13,57,23,7,0.126139,-0.004132,9.916182,-0.007410,0.004509,0.001937,0,0,0,0,0,0
26793,2024,02,28,50243.5080,508700000,2024,2,28,13,57,23,7,0.129041,-0.015391,9.903771,-0.012042,0.002819,0.006972,8.998665764,38.731211990,0,0,0,0
26794,2024,02,28,50243.5180,518700000,2024,2,28,13,57,23,7,0.121297,-0.005596,9.912440,-0.006863,0.002018,0.003903,0,0,0,0,0,0
26795,2024,02,28,50243.5280,528700000,2024,2,28,13,57,23,7,0.126833,0.006309,9.910361,-0.010244,0.001671,0.003792,0,0,0,0,0,0
26796,2024,02,28,50243.5380,538700000,2024,2,28,13,57,23,7,0.112912,-0.002098,9.915400,-0.011371,0.003521,0.000149,0,0,0,0,0,0
26797,2024,02,28,50243.5480,548700000,2024,2,28,13,57,23,7,0.116664,-0.005884,9.909053,-0.007221,0.001731,0.001693,0,0,0,0,0,0
26798,2024,02,28,50243.5580,558700000,2024,2,28,13,57,23,7,0.116759,-0.007874,9.897664,-0.008266,0.003039,0.000859,0,0,0,0,0,0
26799,2024,02,28,50243.5680,568700000,2024,2,28,13,57,23,7,0.117183,-0.007205,9.905143,-0.009896,0.005300,0.001205,0,0,0,0,0,0
26800,2024,02,28,50243.5780,578700000,2024,2,28,13,57,23,7,0.116892,-0.005810,9.898376,-0.009830,0.002342,0.004192,0,0,0,0,0,0
26801,2024,02,28,50243.5880,588700000,2024,2,28,13,57,23,7,0.123268,-0.000563,9.910440,-0.008057,0.004894,0.002965,0,0,0,0,0,0
26802,2024,02,28,50243.5980,598700000,2024,2,28,13,57,23,7,0.126425,-0.008697,9.906693,-0.010050,0.002903,0.002131,0,0,0,0,0,0
26803,2024,02,28,50243.6080,608700000,2024,2,28,13,57,23,7,0.135931,-0.019530,9.923083,-0.009942,0.002622,0.002243,0,0,0,0,0,0
26804,2024,02,28,50243.6180,618700000,2024,2,28,13,57,23,7,0.125936,0.001807,9.913679,-0.007464,0.006565,0.001545,0,0,0,0,0,0
26805,2024,02,28,50243.6280,628700000,2024,2,28,13,57,23,7,0.120919,0.002036,9.904827,-0.005676,0.002490,0.002260,0,0,0,0,0,0
26806,2024,02,28,50243.6380,638700000,2024,2,28,13,57,23,7,0.126925,-0.023537,9.909087,-0.010218,0.000998,0.000678,0,0,0,0,0,0
26807,2024,02,28,50243.6480,648700000,2024,2,28,13,57,23,7,0.134968,-0.007032,9.914278,-0.007257,0.000789,0.002076,0,0,0,0,0,0
26808,2024,02,28,50243.6580,658700000,2024,2,28,13,57,23,7,0.110008,-0.000034,9.903970,-0.007738,0.004046,-0.000009,0,0,0,0,0,0
26809,2024,02,28,50243.6680,668700000,2024,2,28,13,57,23,7,0.123217,-0.010357,9.915192,-0.009741,0.003172,0.003359,0,0,0,0,0,0
26810,2024,02,28,50243.6780,678700000,2024,2,28,13,57,23,7,0.121061,-0.005376,9.909227,-0.008364,0.005000,0.001499,0,0,0,0,0,0
26811,2024,02,28,50243.6880,688700000,2024,2,28,13,57,23,7,0.121174,0.001961,9.917648,-0.008304,0.003165,-0.000639,0,0,0,0,0,0
26812,2024,02,28,50243.6980,698700000,2024,2,28,13,57,23,7,0.108319,-0.004729,9.906094,-0.009670,0.005857,0.001761,0,0,0,0,0,0
26813,2024,02,28,50243.7080,708700000,2024,2,28,13,57,23,7,0.122923,-0.005007,9.909490,-0.010057,0.001042,0.002661,8.998665685,38.731212162,0,0,0,0
26814,2024,02,28,50243.7180,718700000,2024,2,28,13,57,23,7,0.126718,0.003185,9.919148,-0.008589,0.003264,0.002011,0,0,0,0,0,0
26815,2024,02,28,50243.7280,728700000,2024,2,28,13,57,23,7,0.124882,-0.013604,9.907749,-0.009875,0.004273,0.001870,0,0,0,0,0,0
26816,2024,02,28,50243.7380,738700000,2024,2,28,13,57,23,7,0.122365,-0.001826,9.909948,-0.007680,0.000336,0.002236,0,0,0,0,0,0
26817,2024,02,28,50243.7480,748700000,2024,2,28,13,57,23,7,0.129311,-0.008159,9.919309,-0.012191,0.003800,-0.000024,0,0,0,0,0,0
26818,2024,02,28,50243.7580,758700000,2024,2,28,13,57,23,7,0.121895,-0.017585,9.912339,-0.006137,0.003697,0.001815,0,0,0,0,0,0
26819,2024,02,28,50243.7680,768700000,2024,2,28,13,57,23,7,0.124940,-0.008666,9.901929,-0.007693,0.003563,0.000994,0,0,0,0,0,0
26820,2024,02,28,50243.7780,778700000,2024,2,28,13,57,23,7,0.107829,0.000259,9.912009,-0.010957,0.003754,0.001595,0,0,0,0,0,0
26821,2024,02,28,50243.7880,788700000,2024,2,28,13,57,23,7,0.119974,0.002439,9.911816,-0.011711,0.001938,0.003578,0,0,0,0,0,0
26822,2024,02,28,50243.7980,798700000,2024,2,28,13,57,23,7,0.118830,-0.008492,9.917273,-0.009858,0.004178,0.002945,0,0,0,0,0,0
26823,2024,02,28,50243.8080,808700000,2024,2,28,13,57,23,7,0.118519,-0.000619,9.915593,-0.005326,0.000171,0.000297,0,0,0,0,0,0
26824,2024,02,28,50243.8180,818700000,2024,2,28,13,57,23,7,0.111780,0.005578,9.907311,-0.007910,0.003005,0.004428,0,0,0,0,0,0
26825,2024,02,28,50243.8280,828700000,2024,2,28,13,57,23,7,0.129880,-0.017263,9.914703,-0.008541,0.004094,0.004175,0,0,0,0,0,0
26826,2024,02,28,50243.8380,838700000,2024,2,28,13,57,23,7,0.126179,-0.020840,9.922838,-0.009059,0.003925,0.000216,0,0,0,0,0,0
26827,2024,02,28,50243.8480,848700000,2024,2,28,13,57,23,7,0.114761,-0.009173,9.915912,-0.008968,0.006119,0.001352,0,0,0,0,0,0
26828,2024,02,28,50243.8580,858700000,2024,2,28,13,57,23,7,0.117633,0.004528,9.915344,-0.008317,0.006968,0.001467,0,0,0,0,0,0
26829,2024,02,28,50243.8680,868700000,2024,2,28,13,57,23,7,0.118739,-0.008835,9.915606,-0.009026,0.004058,-0.000035,0,0,0,0,0,0
26830,2024,02,28,50243.8780,878700000,2024,2,28,13,57,23,7,0.108577,-0.011519,9.920691,-0.007734,0.004356,0.001936,0,0,0,0,0,0
26831,2024,02,28,50243.8880,888700000,2024,2,28,13,57,23,7,0.129814,-0.003498,9.927145,-0.007254,0.001757,0.001755,0,0,0,0,0,0
26832,2024,02,28,50243.8980,898700000,2024,2,28,13,57,23,7,0.139038,-0.017664,9.909715,-0.008474,0.002209,0.002568,0,0,0,0,0,0
26833,2024,02,28,50243.9080,908700000,2024,2,28,13,57,23,7,0.124062,-0.003727,9.916504,-0.006740,0.001090,0.002930,8.998665797,38.731212358,0,0,0,0
26834,2024,02,28,50243.9180,918700000,2024,2,28,13,57,23,7,0.125431,-0.007952,9.911662,-0.007936,0.004033,0.004110,0,0,0,0,0,0
26835,2024,02,28,50243.9280,928700000,2024,2,28,13,57,23,7,0.125019,-0.007117,9.912604,-0.009290,0.000257,0.002084,0,0,0,0,0,0
26836,2024,02,28,50243.9380,938700000,2024,2,28,13,57,23,7,0.128775,-0.004792,9.908623,-0.010548,0.001177,0.003282,0,0,0,0,0,0
26837,2024,02,28,50243.9480,948700000,2024,2,28,13,57,23,7,0.125991,-0.006389,9.921990,-0.007910,0.005023,0.001263,0,0,0,0,0,0
26838,2024,02,28,50243.9580,958700000,2024,2,28,13,57,23,7,0.107462,-0.000600,9.917935,-0.008117,0.002730,0.001454,0,0,0,0,0,0
26839,2024,02,28,50243.9680,968700000,2024,2,28,13,57,23,7,0.119317,-0.003266,9.891054,-0.013874,0.006092,-0.000567,0,0,0,0,0,0
26840,2024,02,28,50243.9780,978700000,2024,2,28,13,57,23,7,0.111833,-0.003756,9.908502,-0.008815,0.002571,0.001458,0,0,0,0,0,0
26841,2024,02,28,50243.9880,988700000,2024,2,28,13,57,23,7,0.113243,0.000271,9.914695,-0.009130,0.005064,0.001922,0,0,0,0,0,0
26842,2024,02,28,50243.9980,998700000,2024,2,28,13,57,23,7,0.110966,-0.005115,9.903873,-0.010363,0.007253,0.003561,0,0,0,0,0,0
26843,2024,02,28,50244.0080,8700000,2024,2,28,13,57,24,7,0.133188,-0.018038,9.910707,-0.010221,0.002198,0.000856,0,0,0,0,0,0
26844,2024,02,28,50244.0180,18700000,2024,2,28,13,57,24,7,0.121738,-0.008070,9.905921,-0.008224,0.003390,0.001527,0,0,0,0,0,0
26845,2024,02,28,50244.0280,28700000,2024,2,28,13,57,24,7,0.116199,-0.006655,9.918774,-0.008352,0.005085,0.000860,0,0,0,0,0,0
26846,2024,02,28,50244.0380,38700000,2024,2,28,13,57,24,7,0.122080,-0.013056,9.927633,-0.008552,0.003369,0.001747,0,0,0,0,0,0
26847,2024,02,28,50244.0480,48700000,2024,2,28,13,57,24,7,0.125917,-0.013271,9.912032,-0.008791,0.001374,-0.000344,0,0,0,0,0,0
26848,2024,02,28,50244.0580,58700000,2024,2,28,13,57,24,7,0.117691,-0.008838,9.910974,-0.007208,0.004356,0.001858,0,0,0,0,0,0
26849,2024,02,28,50244.0680,68700000,2024,2,28,13,57,24,7,0.104126,-0.001289,9.916944,-0.008978,0.003323,0.002155,0,0,0,0,0,0
26850,2024,02,28,50244.0780,78700000,2024,2,28,13,57,24,7,0.111292,-0.001291,9.915497,-0.010107,0.003078,0.003920,0,0,0,0,0,0
26851,2024,02,28,50244.0880,88700000,2024,2,28,13,57,24,7,0.118218,-0.000680,9.910611,-0.008532,0.001993,0.000183,0,0,0,0,0,0
26852,2024,02,28,50244.0980,98700000,2024,2,28,13,57,24,7,0.121528,-0.004111,9.905798,-0.010035,0.005718,0.001233,0,0,0,0,0,0
26853,2024,02,28,50244.1080,108700000,2024,2,28,13,57,24,7,0.122008,-0.001233,9.916236,-0.008141,0.001977,0.003159,8.998666170,38.731212527,0,0,0,0
26854,2024,02,28,50244.1180,118700000,2024,2,28,13,57,24,7,0.122160,0.002043,9.923704,-0.011804,0.003203,0.002288,0,0,0,0,0,0
26855,2024,02,28,50244.1280,128700000,2024,2,28,13,57,24,7,0.121795,-0.005067,9.899160,-0.004781,0.006174,0.003788,0,0,0,0,0,0
26856,2024,02,28,50244.1380,138700000,2024,2,28,13,57,24,7,0.120920,-0.001396,9.909582,-0.009146,0.001445,0.000766,0,0,0,0,0,0
26857,2024,02,28,50244.1480,148700000,2024,2,28,13,57,24,7,0.121697,-0.008565,9.906987,-0.011186,0.004407,0.002417,0,0,0,0,0,0
26858,2024,02,28,50244.1580,158700000,2024,2,28,13,57,24,7,0.122612,-0.008951,9.905931,-0.007115,0.001458,0.001899,0,0,0,0,0,0
26859,2024,02,28,50244.1680,168700000,2024,2,28,13,57,24,7,0.120763,-0.021585,9.920272,-0.007251,0.003960,0.000741,0,0,0,0,0,0
26860,2024,02,28,50244.1780,178700000,2024,2,28,13,57,24,7,0.132972,-0.006448,9.893849,-0.009315,-0.001034,0.003703,0,0,0,0,0,0
26861,2024,02,28,50244.1880,188700000,2024,2,28,13,57,24,7,0.120561,-0.010290,9.929867,-0.008463,0.000865,0.000581,0,0,0,0,0,0
26862,2024,02,28,50244.1980,198700000,2024,2,28,13,57,24,7,0.127276,-0.002418,9.900414,-0.007804,0.004065,0.001239,0,0,0,0,0,0
26863,2024,02,28,50244.2080,208700000,2024,2,28,13,57,24,7,0.124028,-0.008504,9.907495,-0.008943,0.003773,0.004006,0,0,0,0,0,0
26864,2024,02,28,50244.2180,218700000,2024,2,28,13,57,24,7,0.119765,0.010893,9.918096,-0.008117,0.002654,0.002765,0,0,0,0,0,0
26865,2024,02,28,50244.2280,228700000,2024,2,28,13,57,24,7,0.133214,-0.003817,9.903108,-0.010299,0.002109,0.003119,0,0,0,0,0,0
26866,2024,02,28,50244.2380,238700000,2024,2,28,13,57,24,7,0.121398,0.004555,9.917649,-0.006958,0.001340,0.002787,0,0,0,0,0,0
26867,2024,02,28,50244.2480,248700000,2024,2,28,13,57,24,7,0.116019,-0.001732,9.909987,-0.007907,0.003079,0.002091,0,0,0,0,0,0
26868,2024,02,28,50244.2580,258700000,2024,2,28,13,57,24,7,0.111152,0.000184,9.902093,-0.009039,0.005806,0.001929,0,0,0,0,0,0
26869,2024,02,28,50244.2680,268700000,2024,2,28,13,57,24,7,0.110113,-0.004438,9.913582,-0.007078,0.002826,0.000417,0,0,0,0,0,0
26870,2024,02,28,50244.2780,278700000,2024,2,28,13,57,24,7,0.122867,-0.013052,9.899655,-0.009574,0.004631,0.001382,0,0,0,0,0,0
26871,2024,02,28,50244.2880,288700000,2024,2,28,13,57,24,7,0.130627,-0.008279,9.917428,-0.009787,-0.000844,0.002158,0,0,0,0,0,0
26872,2024,02,28,50244.2980,298700000,2024,2,28,13,57,24,7,0.135438,-0.007617,9.902429,-0.007323,0.003251,-0.000860,0,0,0,0,0,0
26873,2024,02,28,50244.3080,308700000,2024,2,28,13,57,24,7,0.116011,-0.003288,9.917582,-0.008859,0.000510,-0.000929,8.998666433,38.731212637,0,0,0,0
26874,2024,02,28,50244.3180,318700000,2024,2,28,13,57,24,7,0.132477,-0.009518,9.908559,-0.009481,0.004319,0.001415,0,0,0,0,0,0
26875,2024,02,28,50244.3280,328700000,2024,2,28,13,57,24,7,0.108123,0.008356,9.931221,-0.009711,-0.000441,0.003605,0,0,0,0,0,0
26876,2024,02,28,50244.3380,338700000,2024,2,28,13,57,24,7,0.123030,-0.014159,9.912585,-0.008696,0.003952,0.000932,0,0,0,0,0,0
26877,2024,02,28,50244.3480,348700000,2024,2,28,13,57,24,7,0.128282,-0.014909,9.916215,-0.010726,0.003970,0.001592,0,0,0,0,0,0
26878,2024,02,28,50244.3580,358700000,2024,2,28,13,57,24,7,0.116774,-0.007787,9.918663,-0.009727,0.000443,0.003584,0,0,0,0,0,0
26879,2024,02,28,50244.3680,368700000,2024,2,28,13,57,24,7,0.126924,-0.008141,9.914294,-0.008383,0.003990,0.000697,0,0,0,0,0,0
26880,2024,02,28,50244.3780,378700000,2024,2,28,13,57,24,7,0.129237,-0.007384,9.905782,-0.009620,0.003174,0.004731,0,0,0,0,0,0
26881,2024,02,28,50244.3880,388700000,2024,2,28,13,57,24,7,0.121102,-0.005258,9.907209,-0.008707,0.002156,0.000398,0,0,0,0,0,0
26882,2024,02,28,50244.3980,398700000,2024,2,28,13,57,24,7,0.122155,-0.010337,9.912098,-0.008801,0.004142,0.002709,0,0,0,0,0,0
26883,2024,02,28,50244.4080,408700000,2024,2,28,13,57,24,7,0.114827,-0.003263,9.906175,-0.009467,0.003055,0.000284,0,0,0,0,0,0
26884,2024,02,28,50244.4180,418700000,2024,2,28,13,57,24,7,0.119951,-0.006757,9.904114,-0.007427,0.000345,0.000974,0,0,0,0,0,0
26885,2024,02,28,50244.4280,428700000,2024,2,28,13,57,24,7,0.120851,0.001101,9.904359,-0.008459,0.002984,0.000517,0,0,0,0,0,0
26886,2024,02,28,50244.4380,438700000,2024,2,28,13,57,24,7,0.118316,-0.010544,9.912638,-0.007300,0.002520,0.002446,0,0,0,0,0,0
26887,2024,02,28,50244.4480,448700000,2024,2,28,13,57,24,7,0.122595,-0.004541,9.895132,-0.005873,0.002709,0.001442,0,0,0,0,0,0
26888,2024,02,28,50244.4580,458700000,2024,2,28,13,57,24,7,0.118030,-0.005257,9.921288,-0.007896,0.001933,0.002795,0,0,0,0,0,0
26889,2024,02,28,50244.4680,468700000,2024,2,28,13,57,24,7,0.124987,-0.008824,9.916164,-0.009968,0.002383,-0.000710,0,0,0,0,0,0
26890,2024,02,28,50244.4780,478700000,2024,2,28,13,57,24,7,0.113564,-0.018688,9.916493,-0.008318,0.002469,0.002059,0,0,0,0,0,0
26891,2024,02,28,50244.4880,488700000,2024,2,28,13,57,24,7,0.122638,0.005625,9.916832,-0.008246,0.003193,0.001162,0,0,0,0,0,0
26892,2024,02,28,50244.4980,498700000,2024,2,28,13,57,24,7,0.113805,-0.005445,9.922413,-0.010963,0.000795,0.000429,0,0,0,0,0,0
26893,2024,02,28,50244.5080,508700000,2024,2,28,13,57,24,7,0.128117,-0.010251,9.920599,-0.009808,0.001454,0.003163,8.998666723,38.731212776,0,0,0,0
26894,2024,02,28,50244.5180,518700000,2024,2,28,13,57,24,7,0.115344,-0.002237,9.911282,-0.008218,0.002569,0.002745,0,0,0,0,0,0
26895,2024,02,28,50244.5280,528700000,2024,2,28,13,57,24,7,0.121586,-0.000624,9.905791,-0.008482,0.002978,0.002522,0,0,0,0,0,0
26896,2024,02,28,50244.5380,538700000,2024,2,28,13,57,24,7,0.124654,-0.021737,9.922455,-0.009610,0.003475,0.003428,0,0,0,0,0,0
26897,2024,02,28,50244.5480,548700000,2024,2,28,13,57,24,7,0.124391,-0.000085,9.904170,-0.010358,0.001054,0.002577,0,0,0,0,0,0
26898,2024,02,28,50244.5580,558700000,2024,2,28,13,57,24,7,0.126850,-0.010092,9.896976,-0.007471,0.003867,0.002388,0,0,0,0,0,0
26899,2024,02,28,50244.5680,568700000,2024,2,28,13,57,24,7,0.125424,0.009142,9.911410,-0.009086,0.002861,0.002776,0,0,0,0,0,0
26900,2024,02,28,50244.5780,578700000,2024,2,28,13,57,24,7,0.107934,-0.003831,9.898613,-0.009082,0.005311,0.001227,0,0,0,0,0,0
26901,2024,02,28,50244.5880,588700000,2024,2,28,13,57,24,7,0.110252,-0.005883,9.927234,-0.007901,0.005722,0.000113,0,0,0,0,0,0
26902,2024,02,28,50244.5980,598700000,2024,2,28,13,57,24,7,0.120920,-0.002498,9.916342,-0.009248,0.002068,0.001973,0,0,0,0,0,0
26903,2024,02,28,50244.6080,608700000,2024,2,28,13,57,24,7,0.128641,-0.023129,9.889656,-0.007284,0.002823,0.001213,0,0,0,0,0,0
26904,2024,02,28,50244.6180,618700000,2024,2,28,13,57,24,7,0.131707,-0.015282,9.918163,-0.009559,0.003777,0.002196,0,0,0,0,0,0
26905,2024,02,28,50244.6280,628700000,2024,2,28,13,57,24,7,0.133503,-0.007807,9.908687,-0.007926,0.003077,0.003816,0,0,0,0,0,0
26906,2024,02,28,50244.6380,638700000,2024,2,28,13,57,24,7,0.122267,-0.010249,9.914474,-0.008461,0.004987,0.001261,0,0,0,0,0,0
26907,2024,02,28,50244.6480,648700000,2024,2,28,13,57,24,7,0.124699,-0.006395,9.916512,-0.009701,0.001271,-0.001279,0,0,0,0,0,0
26908,2024,02,28,50244.6580,658700000,2024,2,28,13,57,24,7,0.139823,-0.022565,9.909260,-0.006834,0.003421,0.002377,0,0,0,0,0,0
26909,2024,02,28,50244.6680,668700000,2024,2,28,13,57,24,7,0.133718,-0.004851,9.911777,-0.011799,0.007286,0.002594,0,0,0,0,0,0
26910,2024,02,28,50244.6780,678700000,2024,2,28,13,57,24,7,0.129272,-0.014773,9.921208,-0.010082,0.003605,0.001790,0,0,0,0,0,0
26911,2024,02,28,50244.6880,688700000,2024,2,28,13,57,24,7,0.117213,-0.011229,9.910133,-0.010323,0.004638,0.002313,0,0,0,0,0,0
26912,2024,02,28,50244.6980,698700000,2024,2,28,13,57,24,7,0.121246,-0.014706,9.904498,-0.007728,0.003620,0.004342,0,0,0,0,0,0
26913,2024,02,28,50244.7080,708700000,2024,2,28,13,57,24,7,0.127246,-0.018434,9.918462,-0.009670,0.002058,0.002225,8.998667048,38.731212919,0,0,0,0
26914,2024,02,28,50244.7180,718700000,2024,2,28,13,57,24,7,0.107520,-0.002664,9.904185,-0.008352,0.005107,0.002287,0,0,0,0,0,0
26915,2024,02,28,50244.7280,728700000,2024,2,28,13,57,24,7,0.107234,-0.005237,9.928019,-0.011237,0.001118,0.003435,0,0,0,0,0,0
26916,2024,02,28,50244.7380,738700000,2024,2,28,13,57,24,7,0.128600,-0.023625,9.908037,-0.005387,0.001581,0.001932,0,0,0,0,0,0
26917,2024,02,28,50244.7480,748700000,2024,2,28,13,57,24,7,0.115726,-0.009490,9.904892,-0.007798,0.004357,0.002604,0,0,0,0,0,0
26918,2024,02,28,50244.7580,758700000,2024,2,28,13,57,24,7,0.114726,-0.011650,9.911754,-0.012181,0.002996,0.003237,0,0,0,0,0,0
26919,2024,02,28,50244.7680,768700000,2024,2,28,13,57,24,7,0.113754,-0.008018,9.909489,-0.009044,0.005199,0.000932,0,0,0,0,0,0
26920,2024,02,28,50244.7780,778700000,2024,2,28,13,57,24,7,0.119972,-0.008436,9.900323,-0.010843,0.004400,0.003953,0,0,0,0,0,0
26921,2024,02,28,50244.7880,788700000,2024,2,28,13,57,24,7,0.122364,-0.005297,9.910911,-0.009491,0.003968,0.003970,0,0,0,0,0,0
26922,2024,02,28,50244.7980,798700000,2024,2,28,13,57,24,7,0.124137,-0.010658,9.905004,-0.007680,0.002444,0.001854,0,0,0,0,0,0
26923,2024,02,28,50244.8080,808700000,2024,2,28,13,57,24,7,0.126777,-0.013720,9.922598,-0.009002,0.003333,0.001040,0,0,0,0,0,0
26924,2024,02,28,50244.8180,818700000,2024,2,28,13,57,24,7,0.138360,-0.017839,9.905680,-0.007802,0.004849,0.001649,0,0,0,0,0,0
26925,2024,02,28,50244.8280,828700000,2024,2,28,13,57,24,7,0.117930,-0.020678,9.899944,-0.009378,0.001412,0.002167,0,0,0,0,0,0
26926,2024,02,28,50244.8380,838700000,2024,2,28,13,57,24,7,0.137415,-0.024062,9.906617,-0.009508,0.001178,0.002590,0,0,0,0,0,0
26927,2024,02,28,50244.8480,848700000,2024,2,28,13,57,24,7,0.116033,-0.004914,9.893617,-0.007074,0.003091,-0.000321,0,0,0,0,0,0
26928,2024,02,28,50244.8580,858700000,2024,2,28,13,57,24,7,0.116877,0.003204,9.912248,-0.009511,0.003473,0.001991,0,0,0,0,0,0
26929,2024,02,28,50244.8680,868700000,2024,2,28,13,57,24,7,0.113058,-0.001814,9.926192,-0.008271,0.001895,0.001160,0,0,0,0,0,0
26930,2024,02,28,50244.8780,878700000,2024,2,28,13,57,24,7,0.121894,-0.008225,9.919565,-0.009412,0.003988,0.000460,0,0,0,0,0,0
26931,2024,02,28,50244.8880,888700000,2024,2,28,13,57,24,7,0.141414,-0.015923,9.908921,-0.010479,0.003876,0.003303,0,0,0,0,0,0
26932,2024,02,28,50244.8980,898700000,2024,2,28,13,57,24,7,0.117694,0.004165,9.917714,-0.009996,0.001165,0.001108,0,0,0,0,0,0
26933,2024,02,28,50244.9080,908700000,2024,2,28,13,57,24,7,0.116866,-0.007722,9.916762,-0.009681,0.002954,0.000812,8.998667485,38.731213128,0,0,0,0
26934,2024,02,28,50244.9180,918700000,2024,2,28,13,57,24,7,0.113715,-0.008950,9.899640,-0.008808,0.001147,0.002635,0,0,0,0,0,0
26935,2024,02,28,50244.9280,928700000,2024,2,28,13,57,24,7,0.128726,-0.005708,9.921433,-0.007672,0.004692,0.003741,0,0,0,0,0,0
26936,2024,02,28,50244.9380,938700000,2024,2,28,13,57,24,7,0.119818,-0.004429,9.903044,-0.008858,0.004889,0.000841,0,0,0,0,0,0
26937,2024,02,28,50244.9480,948700000,2024,2,28,13,57,24,7,0.113762,-0.004394,9.905331,-0.007771,0.001668,0.000504,0,0,0,0,0,0
26938,2024,02,28,50244.9580,958700000,2024,2,28,13,57,24,7,0.110451,-0.007987,9.917391,-0.009198,0.002621,0.000643,0,0,0,0,0,0
26939,2024,02,28,50244.9680,968700000,2024,2,28,13,57,24,7,0.106474,-0.002863,9.904518,-0.005183,0.000008,0.001850,0,0,0,0,0,0
26940,2024,02,28,50244.9780,978700000,2024,2,28,13,57,24,7,0.111949,-0.010266,9.912079,-0.009218,0.006703,0.001232,0,0,0,0,0,0
26941,2024,02,28,50244.9880,988700000,2024,2,28,13,57,24,7,0.126850,-0.012389,9.909546,-0.007720,0.004212,0.004664,0,0,0,0,0,0
26942,2024,02,28,50244.9980,998700000,2024,2,28,13,57,24,7,0.115598,-0.007053,9.905478,-0.008428,0.004048,0.001051,0,0,0,0,0,0
26943,2024,02,28,50245.0080,8700000,2024,2,28,13,57,25,7,0.125563,-0.014787,9.903485,-0.012144,0.003016,0.001568,0,0,0,0,0,0
26944,2024,02,28,50245.0180,18700000,2024,2,28,13,57,25,7,0.122715,-0.014936,9.927529,-0.009746,0.002831,0.003200,0,0,0,0,0,0
26945,2024,02,28,50245.0280,28700000,2024,2,28,13,57,25,7,0.122439,-0.001939,9.912564,-0.009750,0.001144,0.001263,0,0,0,0,0,0
26946,2024,02,28,50245.0380,38700000,2024,2,28,13,57,25,7,0.126282,-0.009720,9.919862,-0.011397,0.001548,0.002512,0,0,0,0,0,0
26947,2024,02,28,50245.0480,48700000,2024,2,28,13,57,25,7,0.117620,-0.010186,9.924728,-0.008698,0.003934,0.002720,0,0,0,0,0,0
26948,2024,02,28,50245.0580,58700000,2024,2,28,13,57,25,7,0.121433,-0.019462,9.904501,-0.009540,0.003294,0.002744,0,0,0,0,0,0
26949,2024,02,28,50245.0680,68700000,2024,2,28,13,57,25,7,0.124047,-0.010865,9.902275,-0.009762,0.003758,0.002241,0,0,0,0,0,0
26950,2024,02,28,50245.0780,78700000,2024,2,28,13,57,25,7,0.122252,-0.002309,9.911850,-0.009017,0.001590,0.003333,0,0,0,0,0,0
26951,2024,02,28,50245.0880,88700000,2024,2,28,13,57,25,7,0.129858,-0.019174,9.917065,-0.013052,0.002667,0.003227,0,0,0,0,0,0
26952,2024,02,28,50245.0980,98700000,2024,2,28,13,57,25,7,0.112499,-0.003216,9.915159,-0.006911,0.000758,0.002427,0,0,0,0,0,0
26953,2024,02,28,50245.1080,108600000,2024,2,28,13,57,25,7,0.118346,-0.007241,9.901370,-0.010558,0.005974,0.002632,8.998667361,38.731213038,0,0,0,0
26954,2024,02,28,50245.1180,118600000,2024,2,28,13,57,25,7,0.131609,-0.023688,9.905948,-0.008504,0.004755,0.003150,0,0,0,0,0,0
26955,2024,02,28,50245.1280,128600000,2024,2,28,13,57,25,7,0.117701,0.003674,9.912376,-0.009056,0.001495,-0.000519,0,0,0,0,0,0
26956,2024,02,28,50245.1380,138600000,2024,2,28,13,57,25,7,0.120890,-0.022657,9.914703,-0.010281,0.004983,-0.000747,0,0,0,0,0,0
26957,2024,02,28,50245.1480,148600000,2024,2,28,13,57,25,7,0.116605,0.007386,9.908686,-0.010603,0.003404,0.000217,0,0,0,0,0,0
26958,2024,02,28,50245.1580,158600000,2024,2,28,13,57,25,7,0.131618,0.001219,9.911621,-0.008736,0.004650,0.002028,0,0,0,0,0,0
26959,2024,02,28,50245.1680,168600000,2024,2,28,13,57,25,7,0.125998,0.000750,9.917710,-0.006564,0.001734,0.000857,0,0,0,0,0,0
26960,2024,02,28,50245.1780,178600000,2024,2,28,13,57,25,7,0.120645,-0.002346,9.916342,-0.007628,0.005855,0.002795,0,0,0,0,0,0
26961,2024,02,28,50245.1880,188600000,2024,2,28,13,57,25,7,0.115165,-0.024410,9.918295,-0.011809,0.004182,0.001011,0,0,0,0,0,0
26962,2024,02,28,50245.1980,198600000,2024,2,28,13,57,25,7,0.122779,-0.019109,9.903089,-0.009768,0.003771,0.001400,0,0,0,0,0,0
26963,2024,02,28,50245.2080,208600000,2024,2,28,13,57,25,7,0.128409,-0.028640,9.922749,-0.010747,0.002667,0.001458,0,0,0,0,0,0
26964,2024,02,28,50245.2180,218600000,2024,2,28,13,57,25,7,0.116339,-0.002479,9.914500,-0.010219,0.005884,0.001584,0,0,0,0,0,0
26965,2024,02,28,50245.2280,228600000,2024,2,28,13,57,25,7,0.110165,-0.014821,9.912407,-0.010691,0.004282,0.001786,0,0,0,0,0,0
26966,2024,02,28,50245.2380,238600000,2024,2,28,13,57,25,7,0.114793,-0.007517,9.903575,-0.010558,0.003570,0.001294,0,0,0,0,0,0
26967,2024,02,28,50245.2480,248600000,2024,2,28,13,57,25,7,0.109451,0.000667,9.904680,-0.010453,0.003440,0.000559,0,0,0,0,0,0
26968,2024,02,28,50245.2580,258600000,2024,2,28,13,57,25,7,0.116050,-0.008461,9.900620,-0.010395,0.002741,0.000612,0,0,0,0,0,0
26969,2024,02,28,50245.2680,268600000,2024,2,28,13,57,25,7,0.121613,-0.007949,9.903539,-0.009099,0.001577,0.002196,0,0,0,0,0,0
26970,2024,02,28,50245.2780,278600000,2024,2,28,13,57,25,7,0.126024,0.001373,9.907394,-0.010002,0.004413,0.001567,0,0,0,0,0,0
26971,2024,02,28,50245.2880,288600000,2024,2,28,13,57,25,7,0.130852,-0.007479,9.920397,-0.009209,0.000866,0.000312,0,0,0,0,0,0
26972,2024,02,28,50245.2980,298600000,2024,2,28,13,57,25,7,0.114047,0.006760,9.907466,-0.008061,0.001963,0.001406,0,0,0,0,0,0
26973,2024,02,28,50245.3080,308600000,2024,2,28,13,57,25,7,0.119267,-0.011108,9.915615,-0.009433,0.003671,0.002164,8.998666705,38.731212637,0,0,0,0
26974,2024,02,28,50245.3180,318600000,2024,2,28,13,57,25,7,0.116289,-0.010102,9.918420,-0.009989,0.003622,0.000699,0,0,0,0,0,0
26975,2024,02,28,50245.3280,328600000,2024,2,28,13,57,25,7,0.110770,-0.013248,9.909216,-0.009063,0.004119,-0.000166,0,0,0,0,0,0
26976,2024,02,28,50245.3380,338600000,2024,2,28,13,57,25,7,0.115150,-0.000371,9.921477,-0.008443,0.004441,-0.001045,0,0,0,0,0,0
26977,2024,02,28,50245.3480,348600000,2024,2,28,13,57,25,7,0.116900,0.007758,9.900739,-0.007671,0.000630,0.000058,0,0,0,0,0,0
26978,2024,02,28,50245.3580,358600000,2024,2,28,13,57,25,7,0.113528,0.000470,9.897492,-0.007685,0.002323,-0.000077,0,0,0,0,0,0
26979,2024,02,28,50245.3680,368600000,2024,2,28,13,57,25,7,0.117471,-0.002589,9.937175,-0.008091,0.003038,-0.000676,0,0,0,0,0,0
26980,2024,02,28,50245.3780,378600000,2024,2,28,13,57,25,7,0.127417,-0.002128,9.888079,-0.008326,0.004266,0.002465,0,0,0,0,0,0
26981,2024,02,28,50245.3880,388600000,2024,2,28,13,57,25,7,0.119102,-0.002720,9.936722,-0.008800,0.001075,0.000169,0,0,0,0,0,0
26982,2024,02,28,50245.3980,398600000,2024,2,28,13,57,25,7,0.114916,-0.001055,9.906530,-0.007964,0.004257,0.001405,0,0,0,0,0,0
26983,2024,02,28,50245.4080,408600000,2024,2,28,13,57,25,7,0.104213,0.009154,9.922861,-0.009833,0.001146,0.001777,0,0,0,0,0,0
26984,2024,02,28,50245.4180,418600000,2024,2,28,13,57,25,7,0.119144,-0.015847,9.905299,-0.008358,0.004083,0.000486,0,0,0,0,0,0
26985,2024,02,28,50245.4280,428600000,2024,2,28,13,57,25,7,0.120645,-0.008084,9.920254,-0.010150,0.001147,-0.000173,0,0,0,0,0,0
26986,2024,02,28,50245.4380,438600000,2024,2,28,13,57,25,7,0.143972,-0.015148,9.891997,-0.007808,0.002907,0.000834,0,0,0,0,0,0
26987,2024,02,28,50245.4480,448600000,2024,2,28,13,57,25,7,0.107970,-0.002547,9.920199,-0.006499,0.006033,0.002969,0,0,0,0,0,0
26988,2024,02,28,50245.4580,458600000,2024,2,28,13,57,25,7,0.125074,-0.011166,9.901930,-0.008583,0.003818,0.000936,0,0,0,0,0,0
26989,2024,02,28,50245.4680,468600000,2024,2,28,13,57,25,7,0.126009,0.004194,9.900622,-0.010006,0.003248,0.004033,0,0,0,0,0,0
26990,2024,02,28,50245.4780,478600000,2024,2,28,13,57,25,7,0.111758,-0.005249,9.928325,-0.010169,0.003819,0.001252,0,0,0,0,0,0
26991,2024,02,28,50245.4880,488600000,2024,2,28,13,57,25,7,0.116871,-0.009313,9.898141,-0.010766,0.002335,0.003997,0,0,0,0,0,0
26992,2024,02,28,50245.4980,498600000,2024,2,28,13,57,25,7,0.116975,-0.014099,9.914162,-0.008272,0.002638,0.002037,0,0,0,0,0,0
26993,2024,02,28,50245.5080,508600000,2024,2,28,13,57,25,7,0.117928,-0.007459,9.904087,-0.007682,0.002175,0.002989,8.998666496,38.731212500,0,0,0,0
26994,2024,02,28,50245.5180,518600000,2024,2,28,13,57,25,7,0.125581,-0.014963,9.936107,-0.009069,0.002678,0.002616,0,0,0,0,0,0
26995,2024,02,28,50245.5280,528600000,2024,2,28,13,57,25,7,0.122806,0.001073,9.908654,-0.010554,0.001696,0.002208,0,0,0,0,0,0
26996,2024,02,28,50245.5380,538600000,2024,2,28,13,57,25,7,0.127815,-0.013103,9.913362,-0.012346,0.004885,0.002577,0,0,0,0,0,0
26997,2024,02,28,50245.5480,548600000,2024,2,28,13,57,25,7,0.144346,-0.003506,9.914170,-0.007582,0.004411,0.000336,0,0,0,0,0,0
